subid, subage, gender, group, code, cong, targ, resp, unknown, trial, block, Acc, RT, pause_time, ts_RT, diff,
102,25, F, adult, DDD,0,25,104,1,1,1,1,654.04,561.34,648.85,5.19, 
102,25, F, adult, ABA,1,28,100,1,2,1,1,705.28,903.19,702.27,3.01, 
102,25, F, adult, DCD,1,23,98,1,3,1,1,745.56,334.59,742.49,3.07, 
102,25, F, adult, BAB,1,34,102,1,4,1,1,681.39,790.01,678.39,3, 
102,25, F, adult, CCC,0,19,98,1,5,1,1,660.52,517.66,657.62,2.9, 
102,25, F, adult, AAA,0,30,102,1,6,1,1,513.14,284.9,510.36,2.78, 
102,25, F, adult, DDD,0,25,104,1,7,1,1,1296.11,415.34,1293.32,2.79, 
102,25, F, adult, BAB,1,34,102,1,8,1,1,653.13,364.46,649.82,3.31, 
102,25, F, adult, CDC,1,21,104,1,9,1,1,605.46,222.2,602.56,2.9, 
102,25, F, adult, AAA,0,30,102,1,10,1,1,509.17,497.98,506.18,2.99, 
102,25, F, adult, DCD,1,23,98,1,11,1,1,686.72,187.66,683.58,3.14, 
102,25, F, adult, AAA,0,30,102,1,12,1,1,411.87,388.08,409.01,2.86, 
102,25, F, adult, DDD,0,25,104,1,13,1,1,700.16,321.19,697.01,3.16, 
102,25, F, adult, AAA,0,30,102,1,14,1,1,452.35,250.72,449.05,3.3, 
102,25, F, adult, DDD,0,25,104,1,15,1,1,488.96,317.87,486.11,2.84, 
102,25, F, adult, BAB,1,34,102,1,16,1,1,816.79,448.92,813.62,3.17, 
102,25, F, adult, CDC,1,21,104,1,17,1,1,541.67,234.51,538.78,2.89, 
102,25, F, adult, BBB,0,32,100,1,18,1,1,662.71,151.81,659.59,3.12, 
102,25, F, adult, CDC,1,21,104,1,19,1,1,784.95,258.96,781.73,3.22, 
102,25, F, adult, AAA,0,30,102,1,20,1,1,441.75,239.07,438.86,2.89, 
102,25, F, adult, DDD,0,25,104,1,21,1,1,459.99,188.11,457.22,2.76, 
102,25, F, adult, ABA,1,28,100,1,22,1,1,779.52,303.14,776.56,2.96, 
102,25, F, adult, DDD,0,25,104,1,23,1,1,530.69,286.27,527.23,3.46, 
102,25, F, adult, ABA,1,28,100,1,24,1,1,832.84,250.63,829.47,3.37, 
102,25, F, adult, CCC,0,19,98,1,25,1,1,753.93,242.54,750.75,3.18, 
102,25, F, adult, BBB,0,32,100,1,26,1,1,672.59,246.76,669.49,3.09, 
102,25, F, adult, DDD,0,25,104,1,27,1,1,644.81,219.86,641.74,3.07, 
102,25, F, adult, BBB,0,32,100,1,28,1,1,482.62,192.31,479.63,2.99, 
102,25, F, adult, CDC,1,21,104,1,29,1,1,521.18,188.53,518.22,2.96, 
102,25, F, adult, BAB,1,34,102,1,30,1,1,572.73,343.78,567.92,4.81, 
102,25, F, adult, CDC,1,21,104,1,31,1,1,593.66,218.7,590.61,3.05, 
102,25, F, adult, BAB,1,34,102,1,32,1,1,713.58,231.31,710.74,2.84, 
102,25, F, adult, CCC,0,19,98,1,33,1,1,691.25,258.13,688.26,2.99, 
102,25, F, adult, AAA,0,30,102,1,34,1,1,679.51,221.95,676.4,3.11, 
102,25, F, adult, CCC,0,19,98,1,35,1,1,685.85,242.31,682.96,2.88, 
102,25, F, adult, AAA,0,30,102,1,36,1,1,496.3,246.03,492.58,3.71, 
102,25, F, adult, DDD,0,25,104,1,37,1,1,710.55,249.09,704.36,6.18, 
102,25, F, adult, BAB,1,34,102,1,38,1,1,718.53,282.15,715.61,2.92, 
102,25, F, adult, CCC,0,19,98,1,39,1,1,717.2,211.31,714.33,2.88, 
102,25, F, adult, AAA,0,30,102,1,40,1,1,490.81,111.6,488.09,2.72, 
102,25, F, adult, CDC,1,21,104,1,41,1,1,811.52,187.89,807.68,3.84, 
102,25, F, adult, AAA,0,30,102,1,42,1,1,529.96,200.62,521.58,8.38, 
102,25, F, adult, DDD,0,25,104,1,43,1,1,728.48,268.08,725.4,3.09, 
102,25, F, adult, BAB,1,34,102,1,44,1,1,637.1,281.02,634.08,3.02, 
102,25, F, adult, DCD,1,23,98,1,45,1,1,751.46,224.27,748.02,3.44, 
102,25, F, adult, BBB,0,32,100,1,46,1,1,606.46,231.22,603.63,2.83, 
102,25, F, adult, DCD,1,23,98,1,47,1,1,685.83,219.01,682.95,2.88, 
102,25, F, adult, BBB,0,32,100,1,48,1,1,1321.12,358.03,1318.24,2.87, 
102,25, F, adult, DDD,0,25,104,1,49,1,1,591.9,217.14,588.61,3.29, 
102,25, F, adult, BAB,1,34,102,1,50,1,1,576.63,242.14,573.55,3.08, 
102,25, F, adult, CDC,1,21,104,1,51,1,1,673.72,271.19,670.8,2.92, 
102,25, F, adult, ABA,1,28,100,1,52,1,1,618.93,283.55,615.68,3.25, 
102,25, F, adult, CDC,1,21,104,1,53,1,1,496.08,205.43,493.02,3.07, 
102,25, F, adult, AAA,0,30,102,1,54,1,1,544.62,208.27,541.58,3.03, 
102,25, F, adult, CDC,1,21,104,1,55,1,1,696.41,269.34,693.48,2.93, 
102,25, F, adult, AAA,0,30,102,1,56,1,1,396.55,228.19,392.31,4.23, 
102,25, F, adult, DDD,0,25,104,1,57,1,1,370.55,164.89,365.95,4.6, 
102,25, F, adult, BAB,1,34,102,1,58,1,1,596.93,247.26,593.76,3.18, 
102,25, F, adult, CDC,1,21,104,1,59,1,1,523.01,216.94,519.72,3.3, 
102,25, F, adult, BAB,1,34,102,1,60,1,1,470.3,270.9,467.26,3.03, 
102,25, F, adult, DDD,0,25,104,1,61,1,1,354.47,237.53,351.67,2.81, 
102,25, F, adult, BBB,0,32,100,1,62,1,1,581.69,86.03,577.47,4.22, 
102,25, F, adult, CDC,1,21,104,1,63,1,1,460.44,216.36,456.35,4.08, 
102,25, F, adult, AAA,0,30,102,1,64,1,1,511.69,100.62,507.45,4.24, 
102,25, F, adult, DDD,0,25,104,1,65,1,1,510.82,76.85,507.63,3.19, 
102,25, F, adult, BAB,1,34,102,1,66,1,1,560.92,52.7,557.91,3.01, 
102,25, F, adult, DCD,1,23,98,1,67,1,1,793.36,235.1,790.62,2.74, 
102,25, F, adult, BBB,0,32,100,1,68,1,1,497.21,190.89,493.9,3.3, 
102,25, F, adult, CCC,0,19,98,1,69,1,1,416.77,143.2,413.67,3.11, 
102,25, F, adult, BBB,0,32,100,1,70,1,1,585.75,0.41,582.59,3.16, 
102,25, F, adult, CDC,1,21,104,1,71,1,1,544.68,117.83,541.72,2.96, 
102,25, F, adult, ABA,1,28,100,1,72,1,1,568.28,186.92,565.23,3.04, 
102,25, F, adult, DCD,1,23,98,1,73,1,1,521.76,184.24,518.78,2.98, 
102,25, F, adult, BAB,1,34,102,1,74,1,1,639.9,199.58,636.58,3.32, 
102,25, F, adult, CCC,0,19,98,1,75,1,1,517.44,138.52,514.4,3.04, 
102,25, F, adult, ABA,1,28,100,1,76,1,1,660.52,83.73,657.66,2.85, 
102,25, F, adult, DCD,1,23,98,1,77,1,1,583.65,145.45,580.76,2.89, 
102,25, F, adult, BBB,0,32,100,1,78,1,1,499.79,135.75,496.54,3.25, 
102,25, F, adult, CCC,0,19,98,1,79,1,1,474.42,8.55,471.28,3.14, 
102,25, F, adult, BBB,0,32,100,1,80,1,1,488.83,269.7,484.62,4.21, 
102,25, F, adult, DCD,1,23,98,1,81,1,1,512.77,278.86,509,3.78, 
102,25, F, adult, BBB,0,32,100,1,82,1,1,535.63,254.49,528.57,7.05, 
102,25, F, adult, CCC,0,19,98,1,83,1,1,463.35,155.44,459.23,4.12, 
102,25, F, adult, ABA,1,28,100,1,84,1,1,556.31,191.93,553.47,2.84, 
102,25, F, adult, CCC,0,19,98,1,85,1,1,533.03,163.02,525.09,7.94, 
102,25, F, adult, ABA,1,28,100,1,86,1,1,587.76,141.33,584.96,2.8, 
102,25, F, adult, DCD,1,23,98,1,87,1,1,423.57,17.4,419.88,3.69, 
102,25, F, adult, ABA,1,28,100,1,88,1,1,495.27,0.43,492.53,2.74, 
102,25, F, adult, CCC,0,19,98,1,89,1,1,511.75,680.88,504.6,7.14, 
102,25, F, adult, ABA,1,28,100,1,90,1,1,525.12,248.71,521.82,3.3, 
102,25, F, adult, DCD,1,23,98,1,91,1,1,501.43,27.39,498.52,2.91, 
102,25, F, adult, BBB,0,32,100,1,92,1,1,403.96,610.72,399.61,4.35, 
102,25, F, adult, DCD,1,23,98,1,93,1,1,464.34,280.52,461.51,2.83, 
102,25, F, adult, ABA,1,28,100,1,94,1,1,476.58,52.12,472.01,4.58, 
102,25, F, adult, DCD,1,23,98,1,95,1,1,520.57,13.81,517.45,3.12, 
102,25, F, adult, ABA,1,28,100,1,96,1,1,467.07,65.6,464.08,2.99, 
102,25, F, adult, CCC,0,19,98,1,97,1,1,486.31,212.13,483.25,3.06, 
102,25, F, adult, CDC,1,21,104,1,1,2,1,938.77,951.1,935.48,3.28, 
102,25, F, adult, AAA,0,30,102,1,2,2,1,551.92,211.52,548.69,3.23, 
102,25, F, adult, CCC,0,19,98,1,3,2,1,553.35,197.08,548.91,4.45, 
102,25, F, adult, AAA,0,30,102,1,4,2,1,429.49,12.95,426.06,3.43, 
102,25, F, adult, CDC,1,21,104,1,5,2,1,715.18,1191.75,712.34,2.84, 
102,25, F, adult, BAB,1,34,102,1,6,2,1,637.27,64.22,630.18,7.09, 
102,25, F, adult, DDD,0,25,104,1,7,2,1,572.59,295.27,569.74,2.85, 
102,25, F, adult, BAB,1,34,102,1,8,2,1,683.21,304.41,679.02,4.19, 
102,25, F, adult, CDC,1,21,104,1,9,2,1,509.06,216.76,505.96,3.09, 
102,25, F, adult, BAB,1,34,102,1,10,2,1,599.05,232.94,596.1,2.95, 
102,25, F, adult, CDC,1,21,104,1,11,2,1,589.25,320.23,586.02,3.22, 
102,25, F, adult, BAB,1,34,102,1,12,2,1,483.71,168.54,480.65,3.06, 
102,25, F, adult, CCC,0,19,98,1,13,2,1,699.11,254.38,694.96,4.15, 
102,25, F, adult, BAB,1,34,102,1,14,2,1,544.65,247.39,541.79,2.86, 
102,25, F, adult, CDC,1,21,104,1,15,2,1,875.93,251.97,872.92,3.01, 
102,25, F, adult, AAA,0,30,102,1,16,2,1,369.49,258.84,365.18,4.31, 
102,25, F, adult, DDD,0,25,104,1,17,2,1,416.54,417.38,411.25,5.29, 
102,25, F, adult, BBB,0,32,100,1,18,2,1,686.8,252.84,683.92,2.88, 
102,25, F, adult, CDC,1,21,104,1,19,2,1,440.53,90.17,437.48,3.05, 
102,25, F, adult, AAA,0,30,102,1,20,2,1,338.27,233.62,335.38,2.89, 
102,25, F, adult, DDD,0,25,104,1,21,2,1,447.53,127.33,444.43,3.1, 
102,25, F, adult, BAB,1,34,102,1,22,2,1,626.14,138.39,622.99,3.15, 
102,25, F, adult, DDD,0,25,104,1,23,2,1,345.32,232.03,341.39,3.93, 
102,25, F, adult, ABA,1,28,100,1,24,2,1,727.35,947.04,724.28,3.07, 
102,25, F, adult, CCC,0,19,98,1,25,2,1,572.44,174.21,569.38,3.06, 
102,25, F, adult, AAA,0,30,102,1,26,2,1,399.33,936.81,396.57,2.76, 
102,25, F, adult, CDC,1,21,104,1,27,2,1,628.55,138.23,624.23,4.32, 
102,25, F, adult, ABA,1,28,100,1,28,2,1,780.74,238.8,777.88,2.86, 
102,25, F, adult, CDC,1,21,104,1,29,2,1,724.94,233.06,721.9,3.04, 
102,25, F, adult, ABA,1,28,102,1,30,2,0,320.02,563.53,315.1,4.92, 
102,25, F, adult, CCC,0,19,98,1,31,2,1,671.5,379.17,668.77,2.73, 
102,25, F, adult, ABA,1,28,100,1,32,2,1,515.05,439.64,512.22,2.83, 
102,25, F, adult, CDC,1,21,104,1,33,2,1,726.67,538.01,723.94,2.73, 
102,25, F, adult, ABA,1,28,100,1,34,2,1,517.27,256.54,514.26,3.01, 
102,25, F, adult, DCD,1,23,98,1,35,2,1,758.81,408.79,755.08,3.73, 
102,25, F, adult, AAA,0,30,102,1,36,2,1,644.11,239.89,641.21,2.9, 
102,25, F, adult, DCD,1,23,98,1,37,2,1,568.85,232.95,564.69,4.16, 
102,25, F, adult, AAA,0,30,102,1,38,2,1,470.84,228.68,467.78,3.06, 
102,25, F, adult, CCC,0,19,98,1,39,2,1,389.56,220.36,382.61,6.95, 
102,25, F, adult, ABA,1,28,100,1,40,2,1,579.38,69.49,576.59,2.8, 
102,25, F, adult, DDD,0,25,104,1,41,2,1,961.28,453.23,958.49,2.79, 
102,25, F, adult, ABA,1,28,100,1,42,2,1,835.2,499.19,831.55,3.65, 
102,25, F, adult, DCD,1,23,98,1,43,2,1,692.2,379.45,689.18,3.02, 
102,25, F, adult, BBB,0,32,100,1,44,2,1,498.5,544.41,495.54,2.96, 
102,25, F, adult, DCD,1,23,98,1,45,2,1,643.65,83.03,640.71,2.95, 
102,25, F, adult, AAA,0,30,102,1,46,2,1,536.67,249.94,533.81,2.86, 
102,25, F, adult, CDC,1,21,104,1,47,2,1,813.7,232.34,810.65,3.04, 
102,25, F, adult, ABA,1,28,100,1,48,2,1,567.23,1105.6,562.97,4.25, 
102,25, F, adult, DDD,0,25,104,1,49,2,1,660.21,299.24,655.58,4.63, 
102,25, F, adult, BAB,1,34,102,1,50,2,1,581.58,248.87,578.57,3.01, 
102,25, F, adult, DDD,0,25,104,1,51,2,1,596.56,447.33,593.74,2.82, 
102,25, F, adult, AAA,0,30,102,1,52,2,1,459.85,275.76,457.04,2.82, 
102,25, F, adult, DCD,1,23,98,1,53,2,1,617.14,249.41,613.92,3.21, 
102,25, F, adult, AAA,0,30,102,1,54,2,1,510.29,123.13,507.27,3.02, 
102,25, F, adult, DDD,0,25,104,1,55,2,1,516.35,250.13,513.29,3.05, 
102,25, F, adult, BAB,1,34,102,1,56,2,1,510.94,132.96,508.18,2.76, 
102,25, F, adult, CCC,0,19,98,1,57,2,1,693.85,116.27,690.87,2.99, 
102,25, F, adult, AAA,0,30,102,1,58,2,1,471.14,0.42,466.78,4.36, 
102,25, F, adult, CCC,0,19,98,1,59,2,1,640.65,396.32,635.43,5.22, 
102,25, F, adult, AAA,0,30,102,1,60,2,1,499.55,97.22,495.29,4.26, 
102,25, F, adult, CCC,0,19,98,1,61,2,1,531.21,64.75,522.26,8.95, 
102,25, F, adult, BBB,0,32,100,1,62,2,1,535.12,273.26,531.59,3.53, 
102,25, F, adult, DDD,0,25,104,1,63,2,1,685.71,211.09,682.6,3.1, 
102,25, F, adult, BBB,0,32,100,1,64,2,1,524.03,574.82,520.68,3.36, 
102,25, F, adult, CDC,1,21,104,1,65,2,1,688.57,246.08,685.78,2.79, 
102,25, F, adult, BBB,0,32,100,1,66,2,1,578.44,220.97,575.32,3.12, 
102,25, F, adult, CCC,0,19,98,1,67,2,1,555.83,463.2,550.79,5.03, 
102,25, F, adult, BBB,0,32,100,1,68,2,1,482.86,289.07,479.7,3.16, 
102,25, F, adult, CDC,1,21,104,1,69,2,1,648.38,236.02,641.36,7.03, 
102,25, F, adult, BBB,0,32,100,1,70,2,1,627.38,258.94,623.92,3.46, 
102,25, F, adult, DCD,1,23,98,1,71,2,1,568.89,266.15,566.08,2.81, 
102,25, F, adult, BBB,0,32,100,1,72,2,1,496.31,357.19,493.36,2.95, 
102,25, F, adult, CDC,1,21,104,1,73,2,1,814.08,350.97,811.01,3.07, 
102,25, F, adult, ABA,1,28,100,1,74,2,1,584.46,466.11,581.32,3.14, 
102,25, F, adult, DCD,1,23,98,1,75,2,1,710.34,251.84,706.01,4.33, 
102,25, F, adult, ABA,1,28,100,1,76,2,1,569.81,251.54,565.52,4.29, 
102,25, F, adult, DCD,1,23,98,1,77,2,1,778.69,299.47,774.46,4.23, 
102,25, F, adult, ABA,1,28,100,1,78,2,1,465.26,237.6,461.3,3.96, 
102,25, F, adult, CCC,0,19,98,1,79,2,1,570.61,278.32,567.58,3.03, 
102,25, F, adult, BBB,0,32,100,1,80,2,1,385.75,92.36,378.76,7, 
102,25, F, adult, DDD,0,25,104,1,81,2,1,558.89,162.71,554.23,4.65, 
102,25, F, adult, BBB,0,32,100,1,82,2,1,338.67,375.11,335.75,2.92, 
102,25, F, adult, DCD,1,23,98,1,83,2,1,616.07,0.4,612.8,3.27, 
102,25, F, adult, ABA,1,28,100,1,84,2,1,480.84,125.78,476.65,4.19, 
102,25, F, adult, DCD,1,23,98,1,85,2,1,785.1,338.29,781.93,3.17, 
102,25, F, adult, BAB,1,34,102,1,86,2,1,564.13,47.32,561.37,2.77, 
102,25, F, adult, DDD,0,25,104,1,87,2,1,530.78,153.63,523.6,7.18, 
102,25, F, adult, BBB,0,32,100,1,88,2,1,492.88,0.4,489.15,3.73, 
102,25, F, adult, CCC,0,19,98,1,89,2,1,550.94,0.41,547.26,3.68, 
102,25, F, adult, BBB,0,32,100,1,90,2,1,404.36,0.42,398.22,6.14, 
102,25, F, adult, DCD,1,23,98,1,91,2,1,452.64,576.96,448.83,3.81, 
102,25, F, adult, BAB,1,34,102,1,92,2,1,569.77,452.91,565.02,4.74, 
102,25, F, adult, CCC,0,19,98,1,93,2,1,571.66,524.54,568.03,3.64, 
102,25, F, adult, BAB,1,34,102,1,94,2,1,559.31,249.95,555.09,4.21, 
102,25, F, adult, DDD,0,25,104,1,95,2,1,798.01,176,795.24,2.76, 
102,25, F, adult, BAB,1,34,102,1,96,2,1,579.35,274.75,575.15,4.2, 
102,25, F, adult, DCD,1,23,98,1,97,2,1,559.56,219.21,556.75,2.82, 
102,25, F, adult, DCD,1,23,98,1,1,3,1,661.82,301.33,658.83,2.99, 
102,25, F, adult, BBB,0,32,100,1,2,3,1,731.02,532.01,727.68,3.34, 
102,25, F, adult, CCC,0,19,98,1,3,3,1,453.87,109.82,450.81,3.06, 
102,25, F, adult, BBB,0,32,100,1,4,3,1,376.09,98.75,372.05,4.05, 
102,25, F, adult, DCD,1,23,98,1,5,3,1,462.43,188.97,458.79,3.64, 
102,25, F, adult, AAA,0,30,102,1,6,3,1,512.98,106.08,508.1,4.87, 
102,25, F, adult, DDD,0,25,104,1,7,3,1,597.39,303.29,594.3,3.08, 
102,25, F, adult, AAA,0,30,102,1,8,3,1,483.19,200.25,480.26,2.93, 
102,25, F, adult, CDC,1,21,104,1,9,3,1,725.98,187.91,723.01,2.97, 
102,25, F, adult, AAA,0,30,102,1,10,3,1,510.82,17.72,503.78,7.04, 
102,25, F, adult, CDC,1,21,104,1,11,3,1,671.31,447.19,668.49,2.82, 
102,25, F, adult, ABA,1,28,100,1,12,3,1,691.49,281.1,688.81,2.67, 
102,25, F, adult, CDC,1,21,104,1,13,3,1,445.63,260.75,442.26,3.37, 
102,25, F, adult, BBB,0,32,100,1,14,3,1,528.58,126.49,525.38,3.2, 
102,25, F, adult, CDC,1,21,104,1,15,3,1,416.23,138.16,413.31,2.92, 
102,25, F, adult, ABA,1,28,100,1,16,3,1,658.09,235.04,655.08,3.01, 
102,25, F, adult, DCD,1,23,98,1,17,3,1,783.69,266.26,780.67,3.02, 
102,25, F, adult, BBB,0,32,100,1,18,3,1,406.56,272.55,403.74,2.82, 
102,25, F, adult, DDD,0,25,104,1,19,3,1,406.91,254.23,402.74,4.17, 
102,25, F, adult, ABA,1,28,100,1,20,3,1,515.57,279.32,512.65,2.91, 
102,25, F, adult, CCC,0,19,98,1,21,3,1,554.17,279.26,551.03,3.14, 
102,25, F, adult, ABA,1,28,100,1,22,3,1,499.96,295.99,495.43,4.54, 
102,25, F, adult, DDD,0,25,104,1,23,3,1,587.82,229.21,584.89,2.93, 
102,25, F, adult, AAA,0,30,102,1,24,3,1,611.93,684.06,609.19,2.74, 
102,25, F, adult, DCD,1,23,98,1,25,3,1,696.81,182.88,694.03,2.78, 
102,25, F, adult, BAB,1,34,100,1,26,3,0,366.95,584.93,362.64,4.31, 
102,25, F, adult, DDD,0,25,104,1,27,3,1,704.58,245.47,700.85,3.74, 
102,25, F, adult, BBB,0,32,100,1,28,3,1,535.95,174.52,532.54,3.41, 
102,25, F, adult, DDD,0,25,104,1,29,3,1,590.38,80.85,587.43,2.95, 
102,25, F, adult, ABA,1,28,100,1,30,3,1,574.34,207.28,569.64,4.71, 
102,25, F, adult, DCD,1,23,98,1,31,3,1,703.05,203.61,699.28,3.77, 
102,25, F, adult, BAB,1,34,102,1,32,3,1,535.84,38.65,532.58,3.26, 
102,25, F, adult, DDD,0,25,104,1,33,3,1,591.46,230.92,584.61,6.85, 
102,25, F, adult, BAB,1,34,102,1,34,3,1,555.02,9.27,551.91,3.1, 
102,25, F, adult, DCD,1,23,98,1,35,3,1,997.26,312.4,993.99,3.27, 
102,25, F, adult, BBB,0,32,100,1,36,3,1,466.86,57.57,462.66,4.2, 
102,25, F, adult, CCC,0,19,98,1,37,3,1,559.48,193.79,555.25,4.23, 
102,25, F, adult, BBB,0,32,100,1,38,3,1,417.98,170.9,415.08,2.91, 
102,25, F, adult, DCD,1,23,98,1,39,3,1,682.69,136.5,678.96,3.74, 
102,25, F, adult, BBB,0,32,100,1,40,3,1,713.81,56.8,710.89,2.92, 
102,25, F, adult, DCD,1,23,98,1,41,3,1,568.68,31.36,564.43,4.25, 
102,25, F, adult, BAB,1,34,102,1,42,3,1,629.23,0.4,625.87,3.36, 
102,25, F, adult, DDD,0,25,104,1,43,3,1,605.5,6.21,602.49,3.01, 
102,25, F, adult, AAA,0,30,102,1,44,3,1,537.85,417.02,531.93,5.92, 
102,25, F, adult, DDD,0,25,104,1,45,3,1,640.3,71.47,637.52,2.77, 
102,25, F, adult, BBB,0,32,100,1,46,3,1,339.84,183.66,336.99,2.86, 
102,25, F, adult, DCD,1,23,98,1,47,3,1,542.68,228.39,539.49,3.18, 
102,25, F, adult, BBB,0,32,100,1,48,3,1,395.15,140.31,391,4.14, 
102,25, F, adult, DCD,1,23,98,1,49,3,1,670.01,164.38,666.89,3.11, 
102,25, F, adult, BAB,1,34,102,1,50,3,1,588.59,174.5,585.71,2.89, 
102,25, F, adult, DCD,1,23,98,1,51,3,1,526.33,76.31,523.6,2.73, 
102,25, F, adult, ABA,1,28,100,1,52,3,1,610.93,137.26,607.31,3.63, 
102,25, F, adult, CCC,0,19,98,1,53,3,1,474.23,89.62,471.28,2.95, 
102,25, F, adult, BBB,0,32,100,1,54,3,1,390.46,79.27,383.32,7.14, 
102,25, F, adult, DCD,1,23,98,1,55,3,1,420.83,131.57,417.43,3.4, 
102,25, F, adult, BAB,1,34,102,1,56,3,1,629.13,262.47,625.89,3.24, 
102,25, F, adult, DCD,1,23,98,1,57,3,1,452.83,90.35,449.51,3.32, 
102,25, F, adult, BAB,1,34,102,1,58,3,1,671.19,293.13,668.11,3.08, 
102,25, F, adult, CDC,1,21,104,1,59,3,1,801.23,178.34,797.89,3.33, 
102,25, F, adult, AAA,0,30,102,1,60,3,1,561.54,157.52,558.63,2.92, 
102,25, F, adult, CDC,1,21,104,1,61,3,1,695.55,45.81,692.58,2.97, 
102,25, F, adult, ABA,1,28,100,1,62,3,1,690.12,319.46,687.05,3.07, 
102,25, F, adult, CDC,1,21,104,1,63,3,1,531.32,55.1,527.82,3.5, 
102,25, F, adult, BAB,1,34,102,1,64,3,1,732.69,63.57,729.02,3.67, 
102,25, F, adult, CCC,0,19,98,1,65,3,1,566.57,214,563.6,2.97, 
102,25, F, adult, AAA,0,30,102,1,66,3,1,590.11,366.38,587.12,3, 
102,25, F, adult, CCC,0,19,98,1,67,3,1,598.43,104.09,595.67,2.76, 
102,25, F, adult, AAA,0,30,102,1,68,3,1,571.17,62.28,567.12,4.05, 
102,25, F, adult, DDD,0,25,104,1,69,3,1,732.26,199.62,728.94,3.32, 
102,25, F, adult, BBB,0,32,100,1,70,3,1,435.66,94.43,432.59,3.07, 
102,25, F, adult, CDC,1,21,104,1,71,3,1,699.41,286.87,696.44,2.97, 
102,25, F, adult, ABA,1,28,100,1,72,3,1,554.3,286,551.32,2.98, 
102,25, F, adult, CCC,0,19,98,1,73,3,1,690.66,279.66,687.9,2.77, 
102,25, F, adult, BAB,1,34,102,1,74,3,1,717.03,256.18,714.15,2.88, 
102,25, F, adult, DDD,0,25,104,1,75,3,1,782.99,207.24,779.81,3.18, 
102,25, F, adult, BAB,1,34,102,1,76,3,1,1367.13,289.62,1364.02,3.11, 
102,25, F, adult, CCC,0,19,98,1,77,3,1,483.51,298.75,480.48,3.04, 
102,25, F, adult, ABA,1,28,100,1,78,3,1,567.64,176.38,562.65,4.99, 
102,25, F, adult, CDC,1,21,104,1,79,3,1,737.63,261.45,734.06,3.56, 
102,25, F, adult, AAA,0,30,102,1,80,3,1,536.73,262.42,533.63,3.1, 
102,25, F, adult, CDC,1,21,104,1,81,3,1,683.49,265.75,680.54,2.95, 
102,25, F, adult, AAA,0,30,102,1,82,3,1,494.18,59.36,490.24,3.94, 
102,25, F, adult, DDD,0,25,104,1,83,3,1,419.38,89.67,414.27,5.11, 
102,25, F, adult, ABA,1,28,100,1,84,3,1,564.45,327.95,561.48,2.97, 
102,25, F, adult, CCC,0,19,98,1,85,3,1,556.14,206.29,553.35,2.79, 
102,25, F, adult, AAA,0,30,102,1,86,3,1,565.25,183.41,562.35,2.9, 
102,25, F, adult, DDD,0,25,104,1,87,3,1,636.89,624.15,629.06,7.83, 
102,25, F, adult, ABA,1,28,100,1,88,3,1,502.94,99.54,500.13,2.81, 
102,25, F, adult, CCC,0,19,98,1,89,3,1,694.38,259.93,691.27,3.1, 
102,25, F, adult, BAB,1,34,102,1,90,3,1,616.8,129.61,613.72,3.08, 
102,25, F, adult, CCC,0,19,98,1,91,3,1,915.75,240.58,912.98,2.77, 
102,25, F, adult, AAA,0,30,102,1,92,3,1,597.97,312.28,595.22,2.75, 
102,25, F, adult, CCC,0,19,98,1,93,3,1,540.33,118.79,535.74,4.59, 
102,25, F, adult, BAB,1,34,102,1,94,3,1,626.39,266.16,621.79,4.6, 
102,25, F, adult, CDC,1,21,104,1,95,3,1,894.81,412.28,892.17,2.64, 
102,25, F, adult, ABA,1,28,100,1,96,3,1,551.63,1094.01,548.38,3.25, 
102,25, F, adult, CDC,1,21,104,1,97,3,1,738.37,302.51,734.75,3.62, 
103,12, F, ea, DCD,1,28,100,1,1,1,1,1978.24,1126.11,1971.44,6.8, 
103,12, F, ea, BBB,0,25,104,1,2,1,1,1508.34,584.56,1504.79,3.55, 
103,12, F, ea, DDD,0,30,102,1,3,1,1,1180.72,290.51,1177.22,3.5, 
103,12, F, ea, BAB,1,23,98,1,4,1,1,987.21,328.85,983.61,3.6, 
103,12, F, ea, CCC,0,32,100,1,5,1,1,1109.32,287.47,1105.81,3.52, 
103,12, F, ea, BBB,0,25,104,1,6,1,1,808.58,323.89,805.16,3.42, 
103,12, F, ea, CDC,1,34,102,1,7,1,1,1601.22,289.05,1597.58,3.64, 
103,12, F, ea, BAB,1,23,98,1,8,1,1,898.19,449.71,894.74,3.45, 
103,12, F, ea, DDD,0,30,102,1,9,1,1,1019.38,304.55,1015.74,3.64, 
103,12, F, ea, AAA,0,19,98,1,10,1,1,949.85,518.64,945.71,4.14, 
103,12, F, ea, DCD,1,28,100,1,11,1,1,1422.78,386.53,1419.43,3.36, 
103,12, F, ea, BAB,1,23,98,1,12,1,1,1110.69,648.5,1107.27,3.42, 
103,12, F, ea, CCC,0,32,100,1,13,1,1,865.87,524.05,862.23,3.64, 
103,12, F, ea, ABA,1,21,104,1,14,1,1,1290.59,590.68,1287.11,3.48, 
103,12, F, ea, CCC,0,32,100,1,15,1,1,1288.31,684.73,1284.68,3.63, 
103,12, F, ea, ABA,1,21,104,1,16,1,1,1077.49,440.2,1073.84,3.66, 
103,12, F, ea, DCD,1,28,100,1,17,1,1,1359.97,1186.3,1351.16,8.8, 
103,12, F, ea, BBB,0,25,104,1,18,1,1,1512.8,283.36,1509.36,3.44, 
103,12, F, ea, CDC,1,34,102,1,19,1,1,1105.09,300.51,1101.52,3.57, 
103,12, F, ea, BBB,0,25,104,1,20,1,1,1137.25,274.85,1133.37,3.88, 
103,12, F, ea, CCC,0,32,100,1,21,1,1,1155.29,458.76,1151.59,3.71, 
103,12, F, ea, BBB,0,25,104,1,22,1,1,890.47,261.26,886.93,3.53, 
103,12, F, ea, CDC,1,34,102,1,23,1,1,1255.88,305.19,1252.38,3.49, 
103,12, F, ea, ABA,1,21,104,1,24,1,1,1279.23,315.13,1275.63,3.59, 
103,12, F, ea, CCC,0,32,100,1,25,1,1,1079.88,259.44,1075.81,4.08, 
103,12, F, ea, BAB,1,23,98,1,26,1,1,1426.92,376.88,1423.36,3.56, 
103,12, F, ea, CDC,1,34,102,1,27,1,1,1494.17,287.44,1490.75,3.42, 
103,12, F, ea, ABA,1,21,104,1,28,1,1,1341.21,368.81,1337.19,4.01, 
103,12, F, ea, DDD,0,30,102,1,29,1,1,1187.79,250.59,1184.31,3.49, 
103,12, F, ea, BAB,1,23,98,1,30,1,1,1315.76,253.08,1312.23,3.53, 
103,12, F, ea, DCD,1,28,100,1,31,1,1,1342.29,470.77,1338.41,3.88, 
103,12, F, ea, ABA,1,21,104,1,32,1,1,1183.88,501.89,1180.2,3.68, 
103,12, F, ea, CCC,0,32,100,1,33,1,1,1059.83,393.7,1056.08,3.75, 
103,12, F, ea, ABA,1,21,104,1,34,1,1,1843.04,298.31,1839.49,3.55, 
103,12, F, ea, DCD,1,28,100,1,35,1,1,1472.32,301.09,1468.83,3.49, 
103,12, F, ea, AAA,0,19,98,1,36,1,1,944.63,450.72,940.92,3.71, 
103,12, F, ea, CDC,1,34,102,1,37,1,1,1130.1,533.39,1126.32,3.79, 
103,12, F, ea, BBB,0,25,104,1,38,1,1,970.43,448.98,966.8,3.63, 
103,12, F, ea, CDC,1,34,102,1,39,1,1,1225.38,479.78,1221.83,3.55, 
103,12, F, ea, AAA,0,19,98,1,40,1,1,984.92,613.76,981.58,3.34, 
103,12, F, ea, DDD,0,30,102,1,41,1,1,1721.24,460.2,1717.84,3.39, 
103,12, F, ea, BBB,0,25,104,1,42,1,1,1467.56,472.06,1463.82,3.74, 
103,12, F, ea, DDD,0,30,102,1,43,1,1,1009.54,262.82,1006.15,3.39, 
103,12, F, ea, ABA,1,21,104,1,44,1,1,1884.52,410.63,1880.84,3.68, 
103,12, F, ea, CDC,1,34,102,1,45,1,1,2453.92,340.45,2450.59,3.33, 
103,12, F, ea, ABA,1,21,104,1,46,1,1,1499.41,276.81,1496.07,3.33, 
103,12, F, ea, CDC,1,34,102,1,47,1,1,1546.97,268.93,1543.18,3.8, 
103,12, F, ea, AAA,0,19,98,1,48,1,1,946.28,277.51,942.73,3.56, 
103,12, F, ea, CCC,0,32,100,1,49,1,1,922.72,181.46,918.2,4.52, 
103,12, F, ea, BBB,0,25,104,1,50,1,1,948.46,1662.98,944.76,3.7, 
103,12, F, ea, CCC,0,32,100,1,51,1,1,1010.42,465.17,1006.86,3.55, 
103,12, F, ea, BAB,1,23,98,1,52,1,1,1064.6,1331.82,1060.7,3.9, 
103,12, F, ea, DCD,1,28,100,1,53,1,1,1605.49,412.09,1601.99,3.5, 
103,12, F, ea, BBB,0,25,104,1,54,1,1,1533.95,1175.07,1530.46,3.5, 
103,12, F, ea, CDC,1,34,102,1,55,1,1,2092.2,754,2088.56,3.64, 
103,12, F, ea, BAB,1,23,98,1,56,1,1,1150.21,743.07,1146.48,3.72, 
103,12, F, ea, CCC,0,32,100,1,57,1,1,1060.69,537.4,1057.1,3.6, 
103,12, F, ea, BBB,0,25,104,1,58,1,1,892.95,288.56,889.5,3.46, 
103,12, F, ea, DDD,0,30,102,1,59,1,1,607.57,197.31,603.98,3.6, 
103,12, F, ea, AAA,0,19,98,1,60,1,1,670.18,208.85,666.49,3.69, 
103,12, F, ea, DDD,0,30,102,1,61,1,1,931.56,235.23,927.59,3.97, 
103,12, F, ea, BAB,1,23,98,1,62,1,1,1084.86,278.96,1081.38,3.48, 
103,12, F, ea, DCD,1,28,100,1,63,1,1,1309.85,1048.54,1306.3,3.54, 
103,12, F, ea, AAA,0,19,98,1,64,1,1,825.59,519.87,821.94,3.65, 
103,12, F, ea, CCC,0,32,100,1,65,1,1,1063.3,698.21,1059.78,3.52, 
103,12, F, ea, ABA,1,21,104,1,66,1,1,1418.79,199.24,1415.41,3.38, 
103,12, F, ea, CCC,0,32,100,1,67,1,1,785.75,336,782.19,3.56, 
103,12, F, ea, AAA,0,19,98,1,68,1,1,812.25,265.05,808.66,3.59, 
103,12, F, ea, CDC,1,34,102,1,69,1,1,912.65,345.82,908.96,3.69, 
103,12, F, ea, ABA,1,21,104,1,70,1,1,1706.78,3746.8,1699.33,7.46, 
103,12, F, ea, DDD,0,30,102,1,71,1,1,1238.11,716.81,1234.66,3.45, 
103,12, F, ea, ABA,1,21,104,1,72,1,1,1268.42,536.45,1264.88,3.55, 
103,12, F, ea, DCD,1,28,100,1,73,1,1,2045.28,1051.95,2041.6,3.68, 
103,12, F, ea, ABA,1,21,104,1,74,1,1,1541.06,304.27,1537.6,3.46, 
103,12, F, ea, CDC,1,34,102,1,75,1,1,1320.54,312.71,1317.12,3.43, 
103,12, F, ea, AAA,0,19,98,1,76,1,1,1556.09,375.81,1552.49,3.6, 
103,12, F, ea, DDD,0,30,102,1,77,1,1,713.56,339.56,710.13,3.43, 
103,12, F, ea, BBB,0,25,104,1,78,1,1,2089.73,645.96,2086.09,3.64, 
103,12, F, ea, DCD,1,28,100,1,79,1,1,2002.02,224.12,1998.63,3.39, 
103,12, F, ea, BAB,1,23,98,1,80,1,1,898.11,483.19,894.58,3.53, 
103,12, F, ea, CDC,1,34,102,1,81,1,1,3003.05,309.83,2999.29,3.76, 
103,12, F, ea, AAA,0,19,98,1,82,1,1,1291.52,519.75,1287.91,3.61, 
103,12, F, ea, DCD,1,28,100,1,83,1,1,1357.31,854.05,1353.53,3.78, 
103,12, F, ea, BAB,1,23,98,1,84,1,1,1032.8,348.36,1029.15,3.65, 
103,12, F, ea, DCD,1,28,100,1,85,1,1,888.88,444.07,885.38,3.5, 
103,12, F, ea, BBB,0,25,104,1,86,1,1,931.44,420.46,927.32,4.12, 
103,12, F, ea, CCC,0,32,100,1,87,1,1,814.08,323.17,810.47,3.61, 
103,12, F, ea, AAA,0,19,98,1,88,1,1,1128.39,777.69,1124.9,3.49, 
103,12, F, ea, DCD,1,28,100,1,89,1,1,910.08,431.9,906.5,3.59, 
103,12, F, ea, BAB,1,23,98,1,90,1,1,897.91,290.86,894.54,3.37, 
103,12, F, ea, DDD,0,30,102,1,91,1,1,737.9,257.49,734.01,3.89, 
103,12, F, ea, AAA,0,19,98,1,92,1,1,651.63,284.7,647.95,3.68, 
103,12, F, ea, DDD,0,30,102,1,93,1,1,778.62,1706.61,775.12,3.5, 
103,12, F, ea, BAB,1,23,98,1,94,1,1,1731.6,485.86,1728.05,3.55, 
103,12, F, ea, DDD,0,30,102,1,95,1,1,893.66,1631.43,890.13,3.53, 
103,12, F, ea, AAA,0,19,98,1,96,1,1,1877.41,777.14,1873.94,3.47, 
103,12, F, ea, DCD,1,28,100,1,97,1,1,2701.19,579.81,2697.4,3.79, 
103,12, F, ea, DCD,1,28,100,1,1,2,1,2131.85,751.69,2128.17,3.68, 
103,12, F, ea, AAA,0,19,98,1,2,2,1,878.91,120.53,875.49,3.42, 
103,12, F, ea, DCD,1,28,100,1,3,2,1,830.24,312.65,826.87,3.37, 
103,12, F, ea, ABA,1,21,104,1,4,2,1,1061.48,282.02,1057.92,3.56, 
103,12, F, ea, DDD,0,30,102,1,5,2,1,762.72,232.59,759.25,3.46, 
103,12, F, ea, BBB,0,25,104,1,6,2,1,874.93,283.16,871.58,3.35, 
103,12, F, ea, CCC,0,32,100,1,7,2,1,950,274.76,946.2,3.8, 
103,12, F, ea, BBB,0,25,104,1,8,2,1,944.25,377.86,934.78,9.47, 
103,12, F, ea, DDD,0,30,102,1,9,2,1,1029.8,274.87,1026.34,3.46, 
103,12, F, ea, BAB,1,23,98,1,10,2,1,737.44,193.42,728.23,9.21, 
103,12, F, ea, DCD,1,28,100,1,11,2,1,851.04,271.86,847.37,3.66, 
103,12, F, ea, ABA,1,21,104,1,12,2,1,759.88,733.88,756.4,3.48, 
103,12, F, ea, DDD,0,30,102,1,13,2,1,1245.07,16.64,1241.22,3.85, 
103,12, F, ea, BAB,1,23,98,1,14,2,1,828.39,494.36,824.96,3.43, 
103,12, F, ea, DDD,0,30,102,1,15,2,1,640.11,240.89,632.25,7.86, 
103,12, F, ea, BBB,0,25,104,1,16,2,1,922.06,441.89,918.6,3.45, 
103,12, F, ea, DDD,0,30,102,1,17,2,1,651.56,534.92,647.89,3.67, 
103,12, F, ea, ABA,1,21,104,1,18,2,1,1567.29,621.54,1563.73,3.56, 
103,12, F, ea, CCC,0,32,100,1,19,2,1,847.01,210.88,843.4,3.61, 
103,12, F, ea, BAB,1,23,98,1,20,2,1,1084.08,287.04,1080.43,3.65, 
103,12, F, ea, CCC,0,32,100,1,21,2,1,640.8,369.63,637.15,3.65, 
103,12, F, ea, AAA,0,19,98,1,22,2,1,973.32,284.52,969.77,3.54, 
103,12, F, ea, CDC,1,34,102,1,23,2,1,804.05,297.75,800.54,3.51, 
103,12, F, ea, AAA,0,19,98,1,24,2,1,888.02,162.57,884.41,3.62, 
103,12, F, ea, CCC,0,32,100,1,25,2,1,421.51,409.42,417.33,4.18, 
103,12, F, ea, BBB,0,25,104,1,26,2,1,843.55,414.75,839.98,3.57, 
103,12, F, ea, DDD,0,30,102,1,27,2,1,617.58,468.85,613.51,4.07, 
103,12, F, ea, ABA,1,21,104,1,28,2,1,1233.9,370.18,1230.01,3.88, 
103,12, F, ea, CDC,1,34,102,1,29,2,1,2647.18,463.2,2643.77,3.41, 
103,12, F, ea, AAA,0,19,98,1,30,2,1,1309.53,514.24,1306.02,3.52, 
103,12, F, ea, DDD,0,30,102,1,31,2,1,704.54,856.8,701.17,3.37, 
103,12, F, ea, BAB,1,23,98,1,32,2,1,1395.96,313.58,1392.51,3.45, 
103,12, F, ea, CDC,1,34,102,1,33,2,1,1168.75,863.66,1165.25,3.49, 
103,12, F, ea, AAA,0,19,98,1,34,2,1,1148.13,432.47,1141.01,7.12, 
103,12, F, ea, CDC,1,34,102,1,35,2,1,742.69,209.75,735.08,7.61, 
103,12, F, ea, BBB,0,25,104,1,36,2,1,1035.38,536.63,1031.32,4.06, 
103,12, F, ea, DCD,1,28,100,1,37,2,1,1044.87,313.48,1035.49,9.38, 
103,12, F, ea, BBB,0,25,104,1,38,2,1,826.37,276.01,822.52,3.85, 
103,12, F, ea, DDD,0,30,102,1,39,2,1,625.79,359.28,622.01,3.77, 
103,12, F, ea, ABA,1,21,104,1,40,2,1,1207.96,489.44,1200.83,7.13, 
103,12, F, ea, DDD,0,30,102,1,41,2,1,697.16,466.16,693.55,3.61, 
103,12, F, ea, ABA,1,21,104,1,42,2,1,899.42,140.84,896.03,3.39, 
103,12, F, ea, DDD,0,30,102,1,43,2,1,751.32,311.89,747.57,3.75, 
103,12, F, ea, BBB,0,25,104,1,44,2,1,677.29,304.42,673.67,3.61, 
103,12, F, ea, CDC,1,34,102,1,45,2,1,1166.2,838.48,1162.47,3.72, 
103,12, F, ea, BBB,0,25,104,1,46,2,1,905.16,1433.75,901.77,3.39, 
103,12, F, ea, CDC,1,34,102,1,47,2,1,813.58,307.62,810,3.58, 
103,12, F, ea, BAB,1,23,98,1,48,2,1,1026.73,391.36,1023.35,3.37, 
103,12, F, ea, CDC,1,34,102,1,49,2,1,698.74,930.78,695.25,3.49, 
103,12, F, ea, BAB,1,23,98,1,50,2,1,951.49,241.03,942.35,9.13, 
103,12, F, ea, DDD,0,30,102,1,51,2,1,665.68,261.08,662.05,3.63, 
103,12, F, ea, AAA,0,19,98,1,52,2,1,626.91,224.06,623,3.91, 
103,12, F, ea, DDD,0,30,102,1,53,2,1,818.07,182.29,814.67,3.4, 
103,12, F, ea, BBB,0,25,104,1,54,2,1,562.05,248.5,558.56,3.49, 
103,12, F, ea, CCC,0,32,100,1,55,2,1,536.39,312.37,532.69,3.7, 
103,12, F, ea, BAB,1,23,98,1,56,2,1,613.32,265.44,609.78,3.54, 
103,12, F, ea, DCD,1,28,100,1,57,2,1,1473.72,0.3,1470.19,3.53, 
103,12, F, ea, BAB,1,23,98,1,58,2,1,746.69,263.3,743.02,3.66, 
103,12, F, ea, CDC,1,34,102,1,59,2,1,654.41,152.85,650.88,3.53, 
103,12, F, ea, BAB,1,23,98,1,60,2,1,723.56,237.26,720.05,3.51, 
103,12, F, ea, CCC,0,32,100,1,61,2,1,918.73,32.26,915.17,3.56, 
103,12, F, ea, BBB,0,25,104,1,62,2,1,695.21,273.01,691.66,3.55, 
103,12, F, ea, DCD,1,28,100,1,63,2,1,1454.84,605.87,1446.65,8.2, 
103,12, F, ea, ABA,1,21,104,1,64,2,1,1722.34,308.98,1718.93,3.41, 
103,12, F, ea, CDC,1,34,102,1,65,2,1,1360.39,379.44,1356.83,3.57, 
103,12, F, ea, BBB,0,25,104,1,66,2,1,1117.82,848.29,1114.31,3.51, 
103,12, F, ea, CDC,1,34,102,1,67,2,1,2033.2,273.47,2029.61,3.6, 
103,12, F, ea, BAB,1,23,98,1,68,2,1,1306.07,292.04,1302.71,3.36, 
103,12, F, ea, CDC,1,34,102,1,69,2,1,1923.6,302.55,1920.19,3.41, 
103,12, F, ea, BBB,0,25,104,1,70,2,1,725.39,260.61,721.49,3.9, 
103,12, F, ea, CCC,0,32,100,1,71,2,1,636.67,495.58,632.84,3.82, 
103,12, F, ea, AAA,0,19,98,1,72,2,1,622.43,290.78,618.79,3.64, 
103,12, F, ea, CCC,0,32,100,1,73,2,1,681.66,276.21,678.18,3.48, 
103,12, F, ea, ABA,1,21,104,1,74,2,1,1073.98,470.42,1069.98,4.01, 
103,12, F, ea, DCD,1,28,100,1,75,2,1,799.03,300.64,795.42,3.6, 
103,12, F, ea, ABA,1,21,104,1,76,2,1,1122.27,508.52,1118.67,3.61, 
103,12, F, ea, CCC,0,32,100,1,77,2,1,1090.45,325.69,1086.92,3.53, 
103,12, F, ea, AAA,0,19,98,1,78,2,1,779.94,248.72,776.47,3.46, 
103,12, F, ea, DCD,1,28,100,1,79,2,1,1169.8,112.64,1166.16,3.64, 
103,12, F, ea, AAA,0,19,98,1,80,2,1,679.36,440.56,675.9,3.46, 
103,12, F, ea, CCC,0,32,100,1,81,2,1,960.69,232.7,957.04,3.65, 
103,12, F, ea, ABA,1,21,104,1,82,2,1,993.72,416.23,990.21,3.51, 
103,12, F, ea, CCC,0,32,100,1,83,2,1,593.73,312.5,590.17,3.57, 
103,12, F, ea, AAA,0,19,98,1,84,2,1,605.81,306.83,602.19,3.62, 
103,12, F, ea, CDC,1,34,102,1,85,2,1,904.14,338.89,900.61,3.53, 
103,12, F, ea, BAB,1,23,98,1,86,2,1,607.9,325.09,604.15,3.75, 
103,12, F, ea, DCD,1,28,100,1,87,2,1,720.63,258.33,717.17,3.46, 
103,12, F, ea, BAB,1,23,98,1,88,2,1,684.39,396.35,680.87,3.52, 
103,12, F, ea, CCC,0,32,100,1,89,2,1,759.3,342.04,755.79,3.51, 
103,12, F, ea, ABA,1,21,104,1,90,2,1,708.75,300.35,705.42,3.33, 
103,12, F, ea, DCD,1,28,100,1,91,2,1,668.54,420.94,665.18,3.36, 
103,12, F, ea, AAA,0,19,98,1,92,2,1,711.34,368.16,707.8,3.53, 
103,12, F, ea, DCD,1,28,100,1,93,2,1,602.74,432.98,599.34,3.4, 
103,12, F, ea, AAA,0,19,98,1,94,2,1,658.42,0.3,654.86,3.56, 
103,12, F, ea, DCD,1,28,100,1,95,2,1,751.85,845.88,748.21,3.65, 
103,12, F, ea, ABA,1,21,104,1,96,2,1,1173.52,943.58,1169.92,3.6, 
103,12, F, ea, DCD,1,28,100,1,97,2,1,1460.97,1098.15,1452.59,8.38, 
103,12, F, ea, CCC,0,32,100,1,1,3,1,1104.01,868.53,1100.47,3.54, 
103,12, F, ea, AAA,0,19,98,1,2,3,1,583.35,874.16,578.87,4.48, 
103,12, F, ea, CDC,1,34,102,1,3,3,1,2020.11,539.53,2016.64,3.47, 
103,12, F, ea, BAB,1,23,98,1,4,3,1,856.33,251.98,852.71,3.62, 
103,12, F, ea, DDD,0,30,102,1,5,3,1,901.02,278.43,897.62,3.4, 
103,12, F, ea, BAB,1,23,98,1,6,3,1,731.72,221.56,727.82,3.91, 
103,12, F, ea, DDD,0,30,102,1,7,3,1,694.11,255.73,690.57,3.55, 
103,12, F, ea, BAB,1,23,98,1,8,3,1,714.33,185.58,710.77,3.56, 
103,12, F, ea, CCC,0,32,100,1,9,3,1,365.11,128.84,361.64,3.47, 
103,12, F, ea, BAB,1,23,98,1,10,3,1,637.37,49.01,633.66,3.71, 
103,12, F, ea, CDC,1,34,102,1,11,3,1,617.59,197.01,614.19,3.4, 
103,12, F, ea, AAA,0,19,98,1,12,3,1,759.61,158.13,756.1,3.51, 
103,12, F, ea, CCC,0,32,100,1,13,3,1,458.27,12.82,454.81,3.46, 
103,12, F, ea, AAA,0,19,98,1,14,3,1,710.35,198.74,706.95,3.4, 
103,12, F, ea, DCD,1,28,100,1,15,3,1,600.36,238.31,596.78,3.58, 
103,12, F, ea, BAB,1,23,98,1,16,3,1,838.08,122.6,829.37,8.71, 
103,12, F, ea, CDC,1,34,102,1,17,3,1,688.86,210.52,685.53,3.33, 
103,12, F, ea, AAA,0,19,98,1,18,3,1,740,370.95,736.4,3.6, 
103,12, F, ea, DCD,1,28,100,1,19,3,1,1288.03,363.02,1284.62,3.4, 
103,12, F, ea, BBB,0,25,104,1,20,3,1,727.94,247.39,724.1,3.84, 
103,12, F, ea, DCD,1,28,100,1,21,3,1,1301.27,385.34,1297.84,3.43, 
103,12, F, ea, BBB,0,25,104,1,22,3,1,987.56,363.91,983.35,4.21, 
103,12, F, ea, CDC,1,34,102,1,23,3,1,679.1,280.73,675.45,3.65, 
103,12, F, ea, ABA,1,21,104,1,24,3,1,1104.6,465.84,1101.2,3.4, 
103,12, F, ea, DDD,0,30,102,1,25,3,1,736.33,337.72,727.34,8.98, 
103,12, F, ea, BAB,1,23,98,1,26,3,1,1238.8,428.14,1235.24,3.56, 
103,12, F, ea, DDD,0,30,102,1,27,3,1,743.68,253.37,740.13,3.55, 
103,12, F, ea, BBB,0,25,104,1,28,3,1,709.51,558.82,706,3.51, 
103,12, F, ea, DCD,1,28,100,1,29,3,1,2389.4,285.49,2385.75,3.65, 
103,12, F, ea, BAB,1,23,98,1,30,3,1,899.35,543,895.39,3.96, 
103,12, F, ea, DDD,0,30,102,1,31,3,1,756.73,602.17,753.31,3.43, 
103,12, F, ea, ABA,1,21,104,1,32,3,1,1078.85,272.2,1075.25,3.6, 
103,12, F, ea, CDC,1,34,102,1,33,3,1,1045.22,572.8,1041.47,3.75, 
103,12, F, ea, ABA,1,21,104,1,34,3,1,1039.33,316.92,1035.15,4.18, 
103,12, F, ea, CDC,1,34,102,1,35,3,1,961.76,241.88,958.03,3.73, 
103,12, F, ea, AAA,0,19,98,1,36,3,1,829.49,518.66,825.61,3.89, 
103,12, F, ea, DDD,0,30,102,1,37,3,1,708.02,246.25,704.46,3.56, 
103,12, F, ea, BBB,0,25,104,1,38,3,1,694.35,264,690.9,3.45, 
103,12, F, ea, DDD,0,30,102,1,39,3,1,544.74,248.07,541.2,3.55, 
103,12, F, ea, BAB,1,23,98,1,40,3,1,750.38,271.62,746.52,3.86, 
103,12, F, ea, CDC,1,34,102,1,41,3,1,854.98,289.62,851.49,3.49, 
103,12, F, ea, BBB,0,25,104,1,42,3,1,657.76,252.42,654.27,3.49, 
103,12, F, ea, DDD,0,30,102,1,43,3,1,603.79,328.69,600.23,3.56, 
103,12, F, ea, AAA,0,19,98,1,44,3,1,581.23,339.19,577.7,3.54, 
103,12, F, ea, CDC,1,34,102,1,45,3,1,1488.97,284.26,1485.55,3.41, 
103,12, F, ea, ABA,1,21,104,1,46,3,1,1227.4,480.42,1223.8,3.6, 
103,12, F, ea, DCD,1,28,100,1,47,3,1,1601.6,448.45,1598.07,3.53, 
103,12, F, ea, AAA,0,19,98,1,48,3,1,920.85,673.85,917.39,3.46, 
103,12, F, ea, CDC,1,34,102,1,49,3,1,651.04,508.9,647.38,3.66, 
103,12, F, ea, BBB,0,25,104,1,50,3,1,722.77,324.27,719.13,3.64, 
103,12, F, ea, DDD,0,30,102,1,51,3,1,762.89,311.78,759.41,3.48, 
103,12, F, ea, ABA,1,21,104,1,52,3,1,1789.74,303.33,1786.17,3.57, 
103,12, F, ea, DDD,0,30,102,1,53,3,1,1539.44,526.74,1536,3.44, 
103,12, F, ea, BAB,1,23,98,1,54,3,1,1252.21,272.73,1248.41,3.8, 
103,12, F, ea, DDD,0,30,102,1,55,3,1,865.95,355.4,862.3,3.65, 
103,12, F, ea, AAA,0,19,98,1,56,3,1,960.28,288.37,956.74,3.55, 
103,12, F, ea, CCC,0,32,100,1,57,3,1,503.5,312.18,500.05,3.45, 
103,12, F, ea, ABA,1,21,104,1,58,3,1,830.33,442.03,826.43,3.9, 
103,12, F, ea, DCD,1,28,100,1,59,3,1,1133.5,323.46,1129.93,3.57, 
103,12, F, ea, ABA,1,21,104,1,60,3,1,1047.01,373.23,1043.41,3.6, 
103,12, F, ea, CCC,0,32,100,1,61,3,1,1057.43,509.83,1053.83,3.59, 
103,12, F, ea, AAA,0,19,98,1,62,3,1,700.12,365.08,696.62,3.5, 
103,12, F, ea, DDD,0,30,102,1,63,3,1,709.17,424.89,709.01,0.16, 
103,12, F, ea, BBB,0,25,104,1,64,3,1,826.95,287.58,823.08,3.87, 
103,12, F, ea, DCD,1,28,100,1,65,3,1,1087.91,305.15,1084.41,3.51, 
103,12, F, ea, AAA,0,19,98,1,66,3,1,1142.77,304.6,1138.71,4.06, 
103,12, F, ea, CDC,1,34,102,1,67,3,1,823.7,331.55,820.28,3.41, 
103,12, F, ea, ABA,1,21,104,1,68,3,1,1340.77,474.24,1332,8.77, 
103,12, F, ea, DCD,1,28,100,1,69,3,1,883.25,388.53,879.68,3.57, 
103,12, F, ea, ABA,1,21,104,1,70,3,1,896.25,353.6,892.78,3.47, 
103,12, F, ea, DCD,1,28,100,1,71,3,1,752.73,1174.21,749.37,3.36, 
103,12, F, ea, BBB,0,25,104,1,72,3,1,900.31,532.16,897,3.3, 
103,12, F, ea, CCC,0,32,100,1,73,3,1,1105.37,484.7,1101.84,3.52, 
103,12, F, ea, BBB,0,25,104,1,74,3,1,641.94,591.25,633.82,8.12, 
103,12, F, ea, CCC,0,32,100,1,75,3,1,507.91,436.4,504.49,3.42, 
103,12, F, ea, ABA,1,21,104,1,76,3,1,1230.22,362.19,1226.76,3.46, 
103,12, F, ea, CCC,0,32,100,1,77,3,1,701.97,232.03,698.32,3.65, 
103,12, F, ea, AAA,0,19,98,1,78,3,1,713,240.48,709.55,3.45, 
103,12, F, ea, DCD,1,28,100,1,79,3,1,1025.49,222.65,1021.94,3.54, 
103,12, F, ea, ABA,1,21,104,1,80,3,1,896.87,313.77,893.37,3.51, 
103,12, F, ea, CCC,0,32,100,1,81,3,1,607.56,253.37,604.03,3.53, 
103,12, F, ea, AAA,0,19,98,1,82,3,1,740.48,356.4,736.72,3.76, 
103,12, F, ea, CCC,0,32,100,1,83,3,1,584.69,246.79,581.07,3.62, 
103,12, F, ea, BAB,1,23,98,1,84,3,1,934.28,327.63,925.23,9.04, 
103,12, F, ea, CDC,1,34,102,1,85,3,1,1441.38,474.44,1437.7,3.68, 
103,12, F, ea, BBB,0,25,104,1,86,3,1,1049.06,1110.78,1039.79,9.27, 
103,12, F, ea, CDC,1,34,102,1,87,3,1,958.86,790.3,955.21,3.65, 
103,12, F, ea, ABA,1,21,104,1,88,3,1,1219.59,767.52,1216.17,3.42, 
103,12, F, ea, CCC,0,32,100,1,89,3,1,771.52,451.34,767.82,3.69, 
103,12, F, ea, BAB,1,23,98,1,90,3,1,789.18,266.03,785.71,3.46, 
103,12, F, ea, DCD,1,28,100,1,91,3,1,1767.49,298.95,1763.78,3.71, 
103,12, F, ea, BAB,1,23,98,1,92,3,1,2225.54,2456.99,2222.08,3.47, 
103,12, F, ea, DCD,1,28,100,1,93,3,1,1438.51,381.04,1434.88,3.63, 
103,12, F, ea, BBB,0,25,104,1,94,3,1,1530.09,433.4,1526.74,3.36, 
103,12, F, ea, CCC,0,32,100,1,95,3,1,756.34,299.2,752.83,3.51, 
103,12, F, ea, BBB,0,25,104,1,96,3,1,824.9,278.16,820.92,3.98, 
103,12, F, ea, CCC,0,32,100,1,97,3,1,581.11,353.73,577.65,3.46, 
104,25, F, adult, DDD,0,30,102,1,1,1,1,652.28,306.78,647,5.29, 
104,25, F, adult, ABA,1,24,100,1,2,1,1,525.23,225.91,521.66,3.57, 
104,25, F, adult, DDD,0,30,102,1,3,1,1,416.26,296.91,413.05,3.22, 
104,25, F, adult, BBB,0,32,100,1,4,1,1,379.91,207.42,376.79,3.12, 
104,25, F, adult, DDD,0,30,102,1,5,1,1,374.2,296.24,371.45,2.75, 
104,25, F, adult, ABA,1,24,100,1,6,1,1,475.88,258.59,472.23,3.65, 
104,25, F, adult, DCD,1,27,98,1,7,1,1,503.37,244.19,500.38,3, 
104,25, F, adult, ABA,1,24,100,1,8,1,1,465.85,240.61,462.76,3.08, 
104,25, F, adult, DDD,0,30,102,1,9,1,1,415.62,223.01,412.84,2.77, 
104,25, F, adult, ABA,1,24,100,1,10,1,1,477.77,44.29,474.68,3.09, 
104,25, F, adult, CCC,0,19,98,1,11,1,1,514.44,215.85,511.33,3.11, 
104,25, F, adult, ABA,1,24,100,1,12,1,1,405.61,343.3,402.56,3.05, 
104,25, F, adult, DDD,0,30,102,1,13,1,1,577.3,227.16,574.21,3.09, 
104,25, F, adult, BAB,1,33,104,1,14,1,1,594.72,259.5,591.62,3.1, 
104,25, F, adult, CCC,0,19,98,1,15,1,1,552.36,348.59,549.04,3.32, 
104,25, F, adult, BAB,1,33,104,1,16,1,1,636.49,420.98,633.18,3.32, 
104,25, F, adult, DCD,1,27,98,1,17,1,1,498.52,320.77,495.71,2.81, 
104,25, F, adult, AAA,0,25,104,1,18,1,1,522.71,31.68,519.69,3.02, 
104,25, F, adult, DDD,0,30,102,1,19,1,1,405.14,183.26,402.29,2.85, 
104,25, F, adult, BAB,1,33,104,1,20,1,1,581.22,201.95,578.35,2.87, 
104,25, F, adult, DCD,1,27,98,1,21,1,1,536.75,228.19,524.96,11.79, 
104,25, F, adult, BBB,0,32,100,1,22,1,1,410.76,0.4,407.69,3.08, 
104,25, F, adult, CCC,0,19,98,1,23,1,1,466.94,177.51,463.71,3.23, 
104,25, F, adult, ABA,1,24,100,1,24,1,1,554.66,141.88,551.53,3.13, 
104,25, F, adult, DDD,0,30,102,1,25,1,1,470.61,165.62,467.64,2.97, 
104,25, F, adult, BAB,1,33,104,1,26,1,1,493.93,252.74,491.21,2.72, 
104,25, F, adult, CCC,0,19,98,1,27,1,1,402.78,234.16,399.97,2.81, 
104,25, F, adult, BBB,0,32,100,1,28,1,1,341.06,651.97,338.1,2.96, 
104,25, F, adult, DCD,1,27,98,1,29,1,1,545.62,269.08,542.52,3.1, 
104,25, F, adult, BAB,1,33,104,1,30,1,1,546.47,237.41,543.68,2.79, 
104,25, F, adult, CDC,1,22,102,1,31,1,1,683.61,249.07,680.64,2.97, 
104,25, F, adult, BAB,1,33,104,1,32,1,1,531.72,210.2,522.34,9.38, 
104,25, F, adult, DDD,0,30,102,1,33,1,1,501.55,191.08,495.36,6.18, 
104,25, F, adult, ABA,1,24,100,1,34,1,1,440.29,86.32,437.15,3.14, 
104,25, F, adult, CDC,1,22,102,1,35,1,1,531.45,213.89,527.95,3.49, 
104,25, F, adult, BBB,0,32,100,1,36,1,1,413.08,229.59,410.06,3.02, 
104,25, F, adult, DDD,0,30,102,1,37,1,1,379.87,125.91,377.02,2.85, 
104,25, F, adult, AAA,0,25,104,1,38,1,1,430.36,0.41,421.09,9.27, 
104,25, F, adult, DDD,0,30,102,1,39,1,1,415.77,57.42,411.43,4.34, 
104,25, F, adult, AAA,0,25,104,1,40,1,1,487.33,163.65,484.51,2.82, 
104,25, F, adult, DCD,1,27,98,1,41,1,1,500.19,193.67,497.13,3.06, 
104,25, F, adult, AAA,0,25,104,1,42,1,1,497.54,223.56,494.67,2.87, 
104,25, F, adult, DCD,1,27,98,1,43,1,1,565.23,215.95,562.19,3.04, 
104,25, F, adult, ABA,1,24,100,1,44,1,1,453.7,533.73,450.58,3.11, 
104,25, F, adult, DCD,1,27,98,1,45,1,1,520.51,60.89,517.59,2.92, 
104,25, F, adult, AAA,0,25,104,1,46,1,1,427.49,257.84,424.03,3.46, 
104,25, F, adult, DDD,0,30,102,1,47,1,1,512.07,221.34,509.04,3.03, 
104,25, F, adult, BBB,0,32,100,1,48,1,1,339.3,182.53,336.62,2.68, 
104,25, F, adult, CDC,1,22,102,1,49,1,1,383.23,208.26,380.11,3.12, 
104,25, F, adult, BAB,1,33,104,1,50,1,1,464.36,238.53,461.42,2.94, 
104,25, F, adult, CCC,0,19,98,1,51,1,1,444.73,93.14,441.77,2.95, 
104,25, F, adult, AAA,0,25,104,1,52,1,1,448.66,191.88,445.76,2.89, 
104,25, F, adult, CCC,0,19,98,1,53,1,1,439.55,111.9,436.07,3.47, 
104,25, F, adult, BBB,0,32,100,1,54,1,1,395.09,219.92,392.07,3.02, 
104,25, F, adult, DCD,1,27,98,1,55,1,1,483.53,192.36,480.33,3.2, 
104,25, F, adult, AAA,0,25,104,1,56,1,1,480.04,206.67,477.14,2.9, 
104,25, F, adult, CCC,0,19,98,1,57,1,1,461.51,0.41,458.41,3.1, 
104,25, F, adult, BBB,0,32,100,1,58,1,1,387.87,117.87,385.12,2.75, 
104,25, F, adult, CCC,0,19,98,1,59,1,1,473.32,190.99,470.51,2.81, 
104,25, F, adult, BAB,1,33,104,1,60,1,1,584.28,201.44,581.36,2.91, 
104,25, F, adult, CCC,0,19,98,1,61,1,1,439.05,215.69,435.69,3.36, 
104,25, F, adult, AAA,0,25,104,1,62,1,1,429.55,86.5,420.98,8.56, 
104,25, F, adult, DCD,1,27,98,1,63,1,1,385.54,0.42,382.38,3.16, 
104,25, F, adult, AAA,0,25,104,1,64,1,1,389.12,85.81,386.03,3.09, 
104,25, F, adult, DDD,0,30,102,1,65,1,1,467.13,247.64,459.23,7.89, 
104,25, F, adult, BAB,1,33,104,1,66,1,1,533.93,129.25,530.15,3.78, 
104,25, F, adult, DCD,1,27,98,1,67,1,1,522.59,48.67,519.19,3.39, 
104,25, F, adult, BAB,1,33,104,1,68,1,1,366.65,207.53,363.63,3.02, 
104,25, F, adult, DCD,1,27,98,1,69,1,1,462.91,118.45,459.79,3.12, 
104,25, F, adult, BBB,0,32,100,1,70,1,1,402.11,89.54,399.01,3.09, 
104,25, F, adult, CCC,0,19,98,1,71,1,1,549.17,504.9,545.99,3.18, 
104,25, F, adult, BBB,0,32,100,1,72,1,1,387.99,278.19,383.79,4.2, 
104,25, F, adult, CDC,1,22,102,1,73,1,1,483.5,304.58,480.36,3.14, 
104,25, F, adult, BAB,1,33,104,1,74,1,1,522.41,0.41,518.81,3.59, 
104,25, F, adult, CDC,1,22,102,1,75,1,1,454.62,0.4,451.77,2.85, 
104,25, F, adult, BAB,1,33,104,1,76,1,1,535.09,0.42,528.48,6.61, 
104,25, F, adult, DCD,1,27,98,1,77,1,1,494.93,182.09,491.81,3.11, 
104,25, F, adult, AAA,0,25,104,1,78,1,1,412.88,0.43,409.67,3.2, 
104,25, F, adult, CCC,0,19,98,1,79,1,1,445.75,30.02,442.74,3.01, 
104,25, F, adult, AAA,0,25,104,1,80,1,1,395.28,198.24,392.14,3.14, 
104,25, F, adult, DDD,0,30,102,1,81,1,1,417.31,213.19,413.08,4.23, 
104,25, F, adult, ABA,1,24,100,1,82,1,1,434.54,0.39,426.69,7.86, 
104,25, F, adult, CDC,1,22,102,1,83,1,1,418.58,227.31,415.61,2.96, 
104,25, F, adult, ABA,1,24,100,1,84,1,1,466.36,64.46,463.45,2.91, 
104,25, F, adult, CDC,1,22,102,1,85,1,1,486.21,162.68,483.38,2.82, 
104,25, F, adult, AAA,0,25,104,1,86,1,1,412.11,53.12,409.02,3.09, 
104,25, F, adult, CDC,1,22,102,1,87,1,1,450.06,129.36,446.57,3.49, 
104,25, F, adult, BBB,0,32,100,1,88,1,1,370.36,149.06,367.5,2.86, 
104,25, F, adult, CDC,1,22,102,1,89,1,1,427.29,135.71,423.06,4.23, 
104,25, F, adult, BBB,0,32,100,1,90,1,1,444.66,48.45,441.7,2.96, 
104,25, F, adult, CDC,1,22,102,1,91,1,1,445.15,149.99,442.23,2.92, 
104,25, F, adult, BBB,0,32,100,1,92,1,1,343.48,12.16,340.22,3.26, 
104,25, F, adult, CDC,1,22,102,1,93,1,1,444.41,193.66,441.46,2.95, 
104,25, F, adult, ABA,1,24,100,1,94,1,1,455.7,215.64,452.89,2.81, 
104,25, F, adult, CDC,1,22,102,1,95,1,1,365.83,1.06,362.9,2.93, 
104,25, F, adult, ABA,1,24,100,1,96,1,1,384.96,105.72,382.01,2.96, 
104,25, F, adult, CCC,0,19,98,1,97,1,1,591.27,231.44,587.06,4.21, 
104,25, F, adult, DDD,0,30,102,1,1,2,1,535.98,903.8,531.21,4.77, 
104,25, F, adult, BBB,0,32,100,1,2,2,1,450.18,290.18,446.38,3.8, 
104,25, F, adult, CCC,0,19,98,1,3,2,1,526.77,258.68,523.8,2.97, 
104,25, F, adult, ABA,1,24,100,1,4,2,1,496.98,269.59,493.9,3.08, 
104,25, F, adult, DCD,1,27,98,1,5,2,1,601.31,355.38,598.35,2.96, 
104,25, F, adult, BBB,0,32,100,1,6,2,1,461.01,211.79,458.36,2.65, 
104,25, F, adult, DCD,1,27,98,1,7,2,1,547.3,262.8,544.34,2.95, 
104,25, F, adult, AAA,0,25,104,1,8,2,1,508.49,232.59,505.47,3.02, 
104,25, F, adult, CCC,0,19,98,1,9,2,1,543.11,202.09,539.95,3.16, 
104,25, F, adult, BBB,0,32,100,1,10,2,1,353.18,197.12,350.37,2.81, 
104,25, F, adult, CCC,0,19,98,1,11,2,1,438.78,0.41,431.06,7.72, 
104,25, F, adult, BBB,0,32,100,1,12,2,1,369.77,189.27,366.69,3.08, 
104,25, F, adult, CDC,1,22,102,1,13,2,1,493.96,218.95,491.05,2.91, 
104,25, F, adult, AAA,0,25,104,1,14,2,1,442.56,250.17,439.49,3.06, 
104,25, F, adult, CDC,1,22,102,1,15,2,1,486.07,244.24,483.26,2.81, 
104,25, F, adult, BBB,0,32,100,1,16,2,1,430.97,202.67,424.1,6.87, 
104,25, F, adult, CDC,1,22,102,1,17,2,1,473.51,152.44,470.52,2.98, 
104,25, F, adult, AAA,0,25,104,1,18,2,1,457.3,32.49,454.33,2.97, 
104,25, F, adult, CCC,0,19,98,1,19,2,1,390.35,0.41,385.87,4.48, 
104,25, F, adult, ABA,1,24,100,1,20,2,1,337.19,483.31,334.12,3.07, 
104,25, F, adult, CCC,0,19,98,1,21,2,1,528.24,219.76,524.95,3.29, 
104,25, F, adult, BAB,1,33,104,1,22,2,1,520.67,270.7,517.78,2.89, 
104,25, F, adult, CDC,1,22,102,1,23,2,1,380.32,0.41,377.33,2.99, 
104,25, F, adult, BBB,0,32,100,1,24,2,1,318.5,209.41,311.39,7.11, 
104,25, F, adult, DCD,1,27,98,1,25,2,1,616.89,201.16,613.84,3.05, 
104,25, F, adult, ABA,1,24,100,1,26,2,1,411.01,209.52,406.97,4.04, 
104,25, F, adult, DDD,0,30,102,1,27,2,1,385.97,202.48,382.87,3.1, 
104,25, F, adult, BBB,0,32,100,1,28,2,1,464.05,208.84,461.24,2.81, 
104,25, F, adult, DCD,1,27,98,1,29,2,1,376.85,235,374.03,2.81, 
104,25, F, adult, ABA,1,24,100,1,30,2,1,356.14,228.48,342.61,13.53, 
104,25, F, adult, CDC,1,22,102,1,31,2,1,506.37,72.13,503.65,2.72, 
104,25, F, adult, BBB,0,32,100,1,32,2,1,377.36,238.73,374.54,2.82, 
104,25, F, adult, CCC,0,19,98,1,33,2,1,439.87,0.4,436.85,3.02, 
104,25, F, adult, AAA,0,25,104,1,34,2,1,363.02,118.24,359.91,3.1, 
104,25, F, adult, CCC,0,19,98,1,35,2,1,498.51,229.93,495.36,3.16, 
104,25, F, adult, ABA,1,24,100,1,36,2,1,442.22,187.93,438.06,4.16, 
104,25, F, adult, CDC,1,22,102,1,37,2,1,492.11,0.42,487.93,4.18, 
104,25, F, adult, BAB,1,33,104,1,38,2,1,540.04,284.91,534,6.04, 
104,25, F, adult, DCD,1,27,98,1,39,2,1,539.45,188.37,532.72,6.73, 
104,25, F, adult, BAB,1,33,104,1,40,2,1,416.5,244.4,412.44,4.06, 
104,25, F, adult, DCD,1,27,98,1,41,2,1,504.97,0.41,501.6,3.37, 
104,25, F, adult, ABA,1,24,100,1,42,2,1,415.15,119.91,410.96,4.2, 
104,25, F, adult, DDD,0,30,102,1,43,2,1,378.91,180.03,374.74,4.17, 
104,25, F, adult, BAB,1,33,104,1,44,2,1,249.91,0.41,241.86,8.05, 
104,25, F, adult, DDD,0,30,102,1,45,2,1,481.1,153.65,478.38,2.72, 
104,25, F, adult, ABA,1,24,100,1,46,2,1,438.16,185.71,435.23,2.94, 
104,25, F, adult, CCC,0,19,98,1,47,2,1,793.78,251.42,790.88,2.91, 
104,25, F, adult, ABA,1,24,100,1,48,2,1,432.09,0.41,428.42,3.66, 
104,25, F, adult, CDC,1,22,102,1,49,2,1,494.16,54.07,491.28,2.88, 
104,25, F, adult, AAA,0,25,104,1,50,2,1,334.03,0.41,330.82,3.21, 
104,25, F, adult, DDD,0,30,102,1,51,2,1,544.99,257.44,541.93,3.05, 
104,25, F, adult, AAA,0,25,104,1,52,2,1,343.75,226.45,340.65,3.1, 
104,25, F, adult, CDC,1,22,102,1,53,2,1,416.31,225.49,413.49,2.82, 
104,25, F, adult, ABA,1,24,100,1,54,2,1,481.25,54.54,478.09,3.16, 
104,25, F, adult, CCC,0,19,98,1,55,2,1,485.32,19.42,482.19,3.13, 
104,25, F, adult, ABA,1,24,100,1,56,2,1,419.94,80.54,411.78,8.16, 
104,25, F, adult, CDC,1,22,102,1,57,2,1,508.55,0.42,505.51,3.04, 
104,25, F, adult, BAB,1,33,104,1,58,2,1,503.69,39.7,500.92,2.77, 
104,25, F, adult, DCD,1,27,98,1,59,2,1,562.47,574.86,559.43,3.03, 
104,25, F, adult, BAB,1,33,104,1,60,2,1,512.41,237.16,508.12,4.28, 
104,25, F, adult, DDD,0,30,102,1,61,2,1,437.34,258.28,430.88,6.46, 
104,25, F, adult, BBB,0,32,100,1,62,2,1,383.85,290.08,380.83,3.02, 
104,25, F, adult, CDC,1,22,102,1,63,2,1,422.69,190.15,419.63,3.07, 
104,25, F, adult, BAB,1,33,104,1,64,2,1,439.06,31.08,436.02,3.03, 
104,25, F, adult, CCC,0,19,98,1,65,2,1,455.08,4.13,450.83,4.25, 
104,25, F, adult, BAB,1,33,104,1,66,2,1,333.33,0.42,330.12,3.22, 
104,25, F, adult, CCC,0,19,98,1,67,2,1,516.98,0.41,513.8,3.18, 
104,25, F, adult, AAA,0,25,104,1,68,2,1,458.14,79.36,455.31,2.83, 
104,25, F, adult, CDC,1,22,102,1,69,2,1,453.25,138.35,436.92,16.33, 
104,25, F, adult, AAA,0,25,104,1,70,2,1,500.36,42.65,496.1,4.25, 
104,25, F, adult, CDC,1,22,102,1,71,2,1,552.06,210.43,548.51,3.56, 
104,25, F, adult, BAB,1,33,104,1,72,2,1,394.69,21.05,390.44,4.26, 
104,25, F, adult, DCD,1,27,98,1,73,2,1,502.96,0.4,498.29,4.68, 
104,25, F, adult, AAA,0,25,104,1,74,2,1,415.26,127.7,412.19,3.07, 
104,25, F, adult, CCC,0,19,98,1,75,2,1,497.31,0.4,494.32,2.99, 
104,25, F, adult, AAA,0,25,104,1,76,2,1,367.92,161.27,364.98,2.94, 
104,25, F, adult, DDD,0,30,102,1,77,2,1,436.51,625.73,433.54,2.97, 
104,25, F, adult, AAA,0,25,104,1,78,2,1,352.18,523.47,349.16,3.02, 
104,25, F, adult, DDD,0,30,102,1,79,2,1,423.61,246.4,418.66,4.96, 
104,25, F, adult, AAA,0,25,104,1,80,2,1,400.74,220.89,393.83,6.92, 
104,25, F, adult, DDD,0,30,102,1,81,2,1,355.43,71.14,351.24,4.18, 
104,25, F, adult, BAB,1,33,104,1,82,2,1,269.43,121.58,265.34,4.09, 
104,25, F, adult, DDD,0,30,102,1,83,2,1,339.46,231.76,334.74,4.73, 
104,25, F, adult, BBB,0,32,100,1,84,2,1,451.76,156.88,447.51,4.24, 
104,25, F, adult, DCD,1,27,98,1,85,2,1,574.53,241.12,571.48,3.04, 
104,25, F, adult, BBB,0,32,100,1,86,2,1,398.55,287.66,395.63,2.92, 
104,25, F, adult, DDD,0,30,102,1,87,2,1,396.4,197.35,393.19,3.21, 
104,25, F, adult, BAB,1,33,104,1,88,2,1,483.95,67.05,480.79,3.16, 
104,25, F, adult, DCD,1,27,98,1,89,2,1,424.66,167.88,421.05,3.62, 
104,25, F, adult, BAB,1,33,104,1,90,2,1,464.9,0.43,462.19,2.72, 
104,25, F, adult, DDD,0,30,102,1,91,2,1,413.76,366.62,410.69,3.07, 
104,25, F, adult, ABA,1,24,100,1,92,2,1,414.13,200.3,411.06,3.07, 
104,25, F, adult, DCD,1,27,98,1,93,2,1,439.84,127.35,436.51,3.33, 
104,25, F, adult, BBB,0,32,100,1,94,2,1,388.6,219.71,384.35,4.25, 
104,25, F, adult, DCD,1,27,98,1,95,2,1,482.74,336.05,479.8,2.94, 
104,25, F, adult, ABA,1,24,100,1,96,2,1,417.3,34.42,414.26,3.04, 
104,25, F, adult, DDD,0,30,102,1,97,2,1,503.54,261.46,500.56,2.98, 
104,25, F, adult, CCC,0,19,98,1,1,3,1,525.21,713.15,522.18,3.03, 
104,25, F, adult, AAA,0,25,104,1,2,3,1,492.01,361.46,487.08,4.93, 
104,25, F, adult, DDD,0,30,102,1,3,3,1,437.6,338.58,431.57,6.03, 
104,25, F, adult, AAA,0,25,104,1,4,3,1,405.39,213.73,401.35,4.04, 
104,25, F, adult, CCC,0,19,98,1,5,3,1,467.57,0.4,464.47,3.1, 
104,25, F, adult, ABA,1,24,100,1,6,3,1,427.34,98.22,423.78,3.56, 
104,25, F, adult, CDC,1,22,102,1,7,3,1,558.59,209.23,555.56,3.02, 
104,25, F, adult, BBB,0,32,100,1,8,3,1,439.03,207.89,436.22,2.8, 
104,25, F, adult, DCD,1,27,98,1,9,3,1,511.88,220.05,509.1,2.78, 
104,25, F, adult, BBB,0,32,100,1,10,3,1,401.98,172.32,398.9,3.08, 
104,25, F, adult, CCC,0,19,98,1,11,3,1,547.43,217.03,544.51,2.92, 
104,25, F, adult, BBB,0,32,100,1,12,3,1,359.11,201.68,356.25,2.86, 
104,25, F, adult, CCC,0,19,98,1,13,3,1,338.23,420.83,335.27,2.96, 
104,25, F, adult, BBB,0,32,100,1,14,3,1,411.58,0.4,408.81,2.77, 
104,25, F, adult, DDD,0,30,102,1,15,3,1,428.49,100.21,424.98,3.51, 
104,25, F, adult, AAA,0,25,104,1,16,3,1,482.83,0.4,475.66,7.18, 
104,25, F, adult, DCD,1,27,98,1,17,3,1,516.42,176.83,513.3,3.12, 
104,25, F, adult, BBB,0,32,100,1,18,3,1,430.54,265.96,425.35,5.2, 
104,25, F, adult, CDC,1,22,102,1,19,3,1,433.84,39.05,428.09,5.76, 
104,25, F, adult, ABA,1,24,100,1,20,3,1,501.64,194.45,498.69,2.94, 
104,25, F, adult, DDD,0,30,102,1,21,3,1,473.9,0.41,471.08,2.83, 
104,25, F, adult, BBB,0,32,100,1,22,3,1,352.4,162.57,347.88,4.53, 
104,25, F, adult, CDC,1,22,102,1,23,3,1,419.01,139.6,415.51,3.5, 
104,25, F, adult, ABA,1,24,100,1,24,3,1,282.41,187.67,275.23,7.19, 
104,25, F, adult, DCD,1,27,98,1,25,3,1,548.35,0.4,545.34,3, 
104,25, F, adult, ABA,1,24,100,1,26,3,1,445.84,221.97,442.89,2.96, 
104,25, F, adult, CCC,0,19,98,1,27,3,1,396.91,0.41,394.07,2.84, 
104,25, F, adult, BBB,0,32,100,1,28,3,1,238.73,0.44,234.53,4.2, 
104,25, F, adult, CCC,0,19,98,1,29,3,1,542.75,288.41,537.1,5.65, 
104,25, F, adult, AAA,0,25,104,1,30,3,1,492.54,321.36,489.8,2.74, 
104,25, F, adult, CCC,0,19,98,1,31,3,1,483.58,0.4,480.5,3.08, 
104,25, F, adult, AAA,0,25,104,1,32,3,1,457.16,471.97,454.28,2.88, 
104,25, F, adult, DCD,1,27,98,1,33,3,1,556.47,15.84,552.42,4.05, 
104,25, F, adult, ABA,1,24,100,1,34,3,1,430.5,71.21,427.16,3.34, 
104,25, F, adult, CDC,1,22,102,1,35,3,1,468.73,145.75,465.62,3.11, 
104,25, F, adult, BAB,1,33,104,1,36,3,1,362.24,214.02,359.4,2.84, 
104,25, F, adult, CDC,1,22,102,1,37,3,1,475.45,107.03,472.45,2.99, 
104,25, F, adult, BAB,1,33,104,1,38,3,1,455.31,157.44,439.21,16.1, 
104,25, F, adult, DDD,0,30,102,1,39,3,1,415.79,0.4,412.72,3.07, 
104,25, F, adult, BAB,1,33,104,1,40,3,1,437.54,0.41,434.54,3, 
104,25, F, adult, CCC,0,19,98,1,41,3,1,446.66,461.86,443.6,3.06, 
104,25, F, adult, BAB,1,33,104,1,42,3,1,474.19,80.79,471.38,2.81, 
104,25, F, adult, CCC,0,19,98,1,43,3,1,488.64,42.72,484.46,4.18, 
104,25, F, adult, BBB,0,32,100,1,44,3,1,457.16,207.44,454.16,3.01, 
104,25, F, adult, DDD,0,30,102,1,45,3,1,369.47,201.87,366.4,3.07, 
104,25, F, adult, BAB,1,33,104,1,46,3,1,497.49,0.4,492.9,4.59, 
104,25, F, adult, CCC,0,19,98,1,47,3,1,574.3,7.98,571.44,2.86, 
104,25, F, adult, BAB,1,33,104,1,48,3,1,494.25,212.73,491.38,2.88, 
104,25, F, adult, DCD,1,27,98,1,49,3,1,563.92,0.4,560.84,3.09, 
104,25, F, adult, ABA,1,24,100,1,50,3,1,468.93,180.73,466.04,2.89, 
104,25, F, adult, DDD,0,30,102,1,51,3,1,477.31,203.16,474.42,2.88, 
104,25, F, adult, BAB,1,33,104,1,52,3,1,420.37,194.24,415.66,4.71, 
104,25, F, adult, CDC,1,22,102,1,53,3,1,507.35,31.39,502.71,4.65, 
104,25, F, adult, BBB,0,32,100,1,54,3,1,475.88,171.64,472.76,3.12, 
104,25, F, adult, DCD,1,27,98,1,55,3,1,565.44,54.69,562.71,2.74, 
104,25, F, adult, AAA,0,25,104,1,56,3,1,467.76,12.13,464.77,2.99, 
104,25, F, adult, DCD,1,27,98,1,57,3,1,475.69,167.34,471.57,4.12, 
104,25, F, adult, BAB,1,33,104,1,58,3,1,442.56,135.69,439.73,2.83, 
104,25, F, adult, CDC,1,22,102,1,59,3,1,425.32,43.3,420.78,4.54, 
104,25, F, adult, AAA,0,25,104,1,60,3,1,489.15,213.75,485.04,4.11, 
104,25, F, adult, CDC,1,22,102,1,61,3,1,437.57,109.01,434.76,2.81, 
104,25, F, adult, ABA,1,24,100,1,62,3,1,426.26,111.68,422.24,4.02, 
104,25, F, adult, DCD,1,27,98,1,63,3,1,498.72,9.88,495.38,3.34, 
104,25, F, adult, ABA,1,24,100,1,64,3,1,464.18,14.67,460.1,4.09, 
104,25, F, adult, CCC,0,19,98,1,65,3,1,613.97,0.41,610.91,3.06, 
104,25, F, adult, AAA,0,25,104,1,66,3,1,456.84,141.05,452.67,4.16, 
104,25, F, adult, DCD,1,27,98,1,67,3,1,583.54,0.4,580.61,2.93, 
104,25, F, adult, AAA,0,25,104,1,68,3,1,464.08,238.31,461.22,2.86, 
104,25, F, adult, DCD,1,27,98,1,69,3,1,483.43,74.11,480.54,2.89, 
104,25, F, adult, BBB,0,32,100,1,70,3,1,416.75,79.05,412.48,4.27, 
104,25, F, adult, DCD,1,27,98,1,71,3,1,589.55,100.83,584.96,4.58, 
104,25, F, adult, BBB,0,32,100,1,72,3,1,329.72,212.45,326.36,3.37, 
104,25, F, adult, CCC,0,19,98,1,73,3,1,411.91,36.17,409.16,2.74, 
104,25, F, adult, BBB,0,32,100,1,74,3,1,451.01,97.11,448.05,2.96, 
104,25, F, adult, CCC,0,19,98,1,75,3,1,537.18,128.24,530.16,7.02, 
104,25, F, adult, ABA,1,24,100,1,76,3,1,506.19,0.4,503.21,2.98, 
104,25, F, adult, DCD,1,27,98,1,77,3,1,489.39,0.41,486.36,3.03, 
104,25, F, adult, AAA,0,25,104,1,78,3,1,456.33,171.93,452.31,4.02, 
104,25, F, adult, DDD,0,30,102,1,79,3,1,478.58,170.24,474.51,4.07, 
104,25, F, adult, BAB,1,33,104,1,80,3,1,532.41,151.18,528.93,3.49, 
104,25, F, adult, CDC,1,22,102,1,81,3,1,488.46,13.77,485.71,2.76, 
104,25, F, adult, AAA,0,25,104,1,82,3,1,461.64,0.46,458.58,3.06, 
104,25, F, adult, CDC,1,22,102,1,83,3,1,497.96,0.43,495.2,2.77, 
104,25, F, adult, BAB,1,33,104,1,84,3,1,495.85,77.18,493.21,2.64, 
104,25, F, adult, CDC,1,22,102,1,85,3,1,465.18,0.39,462.54,2.64, 
104,25, F, adult, BAB,1,33,104,1,86,3,1,488.52,205.14,485.45,3.07, 
104,25, F, adult, DDD,0,30,102,1,87,3,1,399.1,61.62,395.62,3.47, 
104,25, F, adult, ABA,1,24,100,1,88,3,1,498.62,0.42,495.58,3.04, 
104,25, F, adult, DDD,0,30,102,1,89,3,1,457.13,46.91,444.82,12.31, 
104,25, F, adult, BAB,1,33,104,1,90,3,1,402.09,35.93,399.05,3.04, 
104,25, F, adult, DDD,0,30,102,1,91,3,1,451.24,161.83,447.12,4.11, 
104,25, F, adult, ABA,1,24,100,1,92,3,1,443.07,59.13,440.24,2.82, 
104,25, F, adult, CDC,1,22,102,1,93,3,1,405.67,64.24,402.64,3.03, 
104,25, F, adult, AAA,0,25,104,1,94,3,1,419.78,221.27,416.69,3.09, 
104,25, F, adult, DDD,0,30,102,1,95,3,1,451.14,99.57,448.14,3, 
104,25, F, adult, ABA,1,24,100,1,96,3,1,421.17,134.74,418,3.17, 
104,25, F, adult, DDD,0,30,102,1,97,3,1,425.7,32.89,422.5,3.2, 
106,19, F, lat, CDC,1,21,104,1,1,1,1,862.87,476.87,858.09,4.79, 
106,19, F, lat, ABA,1,28,100,1,2,1,1,1216.96,1378.11,1213.8,3.16, 
106,19, F, lat, DCD,1,23,98,1,3,1,1,674.61,360.54,671.8,2.81, 
106,19, F, lat, BBB,0,32,100,1,4,1,1,577.47,420.36,574.66,2.8, 
106,19, F, lat, DCD,1,23,98,1,5,1,1,657.31,498.67,654.31,3, 
106,19, F, lat, BBB,0,32,100,1,6,1,1,589.02,528.03,586.05,2.97, 
106,19, F, lat, DCD,1,23,98,1,7,1,1,745.55,445.18,742.44,3.11, 
106,19, F, lat, BBB,0,32,100,1,8,1,1,641.48,875.43,638.16,3.32, 
106,19, F, lat, CCC,0,19,98,1,9,1,1,607.37,616.89,604.67,2.71, 
106,19, F, lat, ABA,1,28,100,1,10,1,1,711.63,644.26,708.98,2.65, 
106,19, F, lat, CDC,1,21,104,1,11,1,1,826.6,498.77,823.63,2.97, 
106,19, F, lat, BAB,1,34,102,1,12,1,1,614.94,438.38,611.87,3.07, 
106,19, F, lat, DCD,1,23,98,1,13,1,1,612.14,318.14,609.16,2.99, 
106,19, F, lat, BAB,1,34,102,1,14,1,1,776.84,402.73,773.75,3.09, 
106,19, F, lat, DDD,0,25,104,1,15,1,1,645.49,345.77,631.23,14.26, 
106,19, F, lat, BBB,0,32,100,1,16,1,1,650.09,626.76,646.29,3.8, 
106,19, F, lat, DDD,0,25,104,1,17,1,1,504.48,557.94,501.46,3.02, 
106,19, F, lat, ABA,1,28,100,1,18,1,1,694.67,357.87,691.52,3.15, 
106,19, F, lat, CDC,1,21,104,1,19,1,1,661.21,413.4,658.51,2.7, 
106,19, F, lat, ABA,1,28,100,1,20,1,1,649.19,483.17,646.06,3.13, 
106,19, F, lat, DDD,0,25,104,1,21,1,1,600.14,592.25,596.95,3.18, 
106,19, F, lat, BBB,0,32,100,1,22,1,1,704.31,461.96,701.54,2.77, 
106,19, F, lat, CDC,1,21,104,1,23,1,1,915.17,431.14,912.08,3.09, 
106,19, F, lat, ABA,1,28,100,1,24,1,1,804.47,590.88,801.52,2.96, 
106,19, F, lat, CCC,0,19,98,1,25,1,1,849.92,477.43,842.86,7.06, 
106,19, F, lat, BBB,0,32,100,1,26,1,1,638.61,282.41,632.48,6.13, 
106,19, F, lat, CDC,1,21,104,1,27,1,1,781.42,456.06,778.59,2.83, 
106,19, F, lat, AAA,0,30,102,1,28,1,1,565.03,455.28,562.39,2.65, 
106,19, F, lat, DCD,1,23,98,1,29,1,1,620.71,414.38,617.9,2.82, 
106,19, F, lat, AAA,0,30,102,1,30,1,1,577.98,406.11,575.22,2.76, 
106,19, F, lat, CCC,0,19,98,1,31,1,1,612.27,255.12,609.57,2.7, 
106,19, F, lat, BAB,1,34,102,1,32,1,1,668.79,258.61,665.98,2.82, 
106,19, F, lat, CDC,1,21,104,1,33,1,1,694.44,462.11,691.7,2.73, 
106,19, F, lat, ABA,1,28,100,1,34,1,1,715.92,391.71,712.95,2.97, 
106,19, F, lat, DDD,0,25,104,1,35,1,1,630.92,622.87,627.44,3.48, 
106,19, F, lat, BAB,1,34,102,1,36,1,1,1447.58,340.78,1444.37,3.21, 
106,19, F, lat, DCD,1,23,98,1,37,1,1,871.28,246.08,868.52,2.76, 
106,19, F, lat, ABA,1,28,100,1,38,1,1,625.96,618.93,622.89,3.06, 
106,19, F, lat, CDC,1,21,104,1,39,1,1,674.07,375.92,671.33,2.75, 
106,19, F, lat, ABA,1,28,100,1,40,1,1,651.42,271.73,648.13,3.29, 
106,19, F, lat, DDD,0,25,104,1,41,1,1,610.87,357.99,608.01,2.86, 
106,19, F, lat, ABA,1,28,100,1,42,1,1,652.02,277.9,648.43,3.58, 
106,19, F, lat, DCD,1,23,98,1,43,1,1,704.85,263.57,701.94,2.92, 
106,19, F, lat, BBB,0,32,100,1,44,1,1,548.39,311.95,545.55,2.83, 
106,19, F, lat, CCC,0,19,98,1,45,1,1,660.15,265.77,656.03,4.12, 
106,19, F, lat, ABA,1,28,100,1,46,1,1,605.46,288.23,602.57,2.89, 
106,19, F, lat, CCC,0,19,98,1,47,1,1,684.08,377.13,681.16,2.92, 
106,19, F, lat, AAA,0,30,102,1,48,1,1,578.58,180.26,575.41,3.17, 
106,19, F, lat, CCC,0,19,98,1,49,1,1,628.82,156.6,626.08,2.74, 
106,19, F, lat, BAB,1,34,102,1,50,1,1,614.53,255.43,611.92,2.61, 
106,19, F, lat, CDC,1,21,104,1,51,1,1,676.35,251.66,673.3,3.06, 
106,19, F, lat, BBB,0,32,100,1,52,1,1,792.04,298.08,789.35,2.69, 
106,19, F, lat, CCC,0,19,98,1,53,1,1,640.17,204.87,634.05,6.12, 
106,19, F, lat, AAA,0,30,102,1,54,1,1,516.66,168.54,513.56,3.1, 
106,19, F, lat, CDC,1,21,104,1,55,1,1,522.41,262.1,519.66,2.75, 
106,19, F, lat, BBB,0,32,100,1,56,1,1,437.91,218.61,431.38,6.53, 
106,19, F, lat, CCC,0,19,98,1,57,1,1,569.05,259.66,566.25,2.8, 
106,19, F, lat, BBB,0,32,100,1,58,1,1,648.06,224.04,645.18,2.88, 
106,19, F, lat, CCC,0,19,98,1,59,1,1,607.16,231.63,604.16,2.99, 
106,19, F, lat, ABA,1,28,100,1,60,1,1,580.89,272.08,578.2,2.7, 
106,19, F, lat, DCD,1,23,98,1,61,1,1,716.86,177.21,713.82,3.04, 
106,19, F, lat, BBB,0,32,100,1,62,1,1,650.84,296.81,647.84,3, 
106,19, F, lat, CCC,0,19,98,1,63,1,1,548.68,303.95,545.71,2.96, 
106,19, F, lat, BAB,1,34,102,1,64,1,1,603.05,459.75,600.03,3.02, 
106,19, F, lat, DCD,1,23,98,1,65,1,1,665.15,64.05,662.31,2.84, 
106,19, F, lat, BBB,0,32,100,1,66,1,1,451.67,0.39,448.49,3.18, 
106,19, F, lat, DDD,0,25,104,1,67,1,1,465.82,0.28,462.68,3.14, 
106,19, F, lat, AAA,0,30,102,1,68,1,1,479.5,190.4,475.35,4.14, 
106,19, F, lat, DCD,1,23,98,1,69,1,1,583.5,0.4,580.44,3.06, 
106,19, F, lat, AAA,0,30,102,1,70,1,1,480.02,0.39,475.8,4.23, 
106,19, F, lat, CCC,0,19,98,1,71,1,1,543.4,104.75,540.66,2.74, 
106,19, F, lat, ABA,1,28,100,1,72,1,1,531.81,255.83,523.6,8.21, 
106,19, F, lat, DDD,0,25,104,1,73,1,1,640.24,308.79,634.04,6.2, 
106,19, F, lat, BAB,1,34,102,1,74,1,1,624.5,344.6,621.5,3.01, 
106,19, F, lat, DCD,1,23,98,1,75,1,1,714.7,271.06,711.67,3.03, 
106,19, F, lat, BAB,1,34,102,1,76,1,1,567.52,454.13,564.42,3.11, 
106,19, F, lat, DDD,0,25,104,1,77,1,1,795.44,301.13,792.21,3.23, 
106,19, F, lat, BAB,1,34,102,1,78,1,1,633.06,288.25,629.63,3.43, 
106,19, F, lat, CCC,0,19,98,1,79,1,1,628.06,469.32,624.76,3.3, 
106,19, F, lat, AAA,0,30,102,1,80,1,1,688.04,319.01,684.5,3.54, 
106,19, F, lat, DDD,0,25,104,1,81,1,1,650.64,456.75,647.28,3.36, 
106,19, F, lat, BAB,1,34,102,1,82,1,1,576.86,288.45,572.81,4.06, 
106,19, F, lat, DDD,0,25,104,1,83,1,1,604.74,278.41,602,2.74, 
106,19, F, lat, BAB,1,34,102,1,84,1,1,593.04,444.46,590.39,2.65, 
106,19, F, lat, DCD,1,23,98,1,85,1,1,723.06,310.46,720.22,2.84, 
106,19, F, lat, AAA,0,30,102,1,86,1,1,513.49,335.26,510.83,2.66, 
106,19, F, lat, DDD,0,25,104,1,87,1,1,626.96,417.91,622.53,4.43, 
106,19, F, lat, AAA,0,30,102,1,88,1,1,544.81,388.33,541.33,3.47, 
106,19, F, lat, DDD,0,25,104,1,89,1,1,626.09,284,623.11,2.98, 
106,19, F, lat, AAA,0,30,102,1,90,1,1,615.54,480.35,612.52,3.03, 
106,19, F, lat, CDC,1,21,104,1,91,1,1,708.87,338.03,705.79,3.07, 
106,19, F, lat, BAB,1,34,102,1,92,1,1,659.96,370.57,656.81,3.15, 
106,19, F, lat, CDC,1,21,104,1,93,1,1,627.15,403.63,623.52,3.63, 
106,19, F, lat, AAA,0,30,102,1,94,1,1,706.29,256.62,703.46,2.82, 
106,19, F, lat, CDC,1,21,104,1,95,1,1,725.62,242.7,722.9,2.73, 
106,19, F, lat, AAA,0,30,102,1,96,1,1,486.83,0.41,483.83,2.99, 
106,19, F, lat, CDC,1,21,104,1,97,1,1,543.56,193.15,540.76,2.8, 
106,19, F, lat, DCD,1,23,98,1,1,2,1,749.7,333.89,746.35,3.34, 
106,19, F, lat, ABA,1,28,100,1,2,2,1,622.61,336.31,619.26,3.34, 
106,19, F, lat, CDC,1,21,104,1,3,2,1,649.49,193.38,645.91,3.58, 
106,19, F, lat, AAA,0,30,102,1,4,2,1,494.18,111.06,487.27,6.92, 
106,19, F, lat, CCC,0,19,98,1,5,2,1,642.3,210.12,638.8,3.5, 
106,19, F, lat, ABA,1,28,100,1,6,2,1,541.93,0.4,539.13,2.79, 
106,19, F, lat, DDD,0,25,104,1,7,2,1,441.77,68.14,438.94,2.82, 
106,19, F, lat, ABA,1,28,100,1,8,2,1,641.91,225.22,638.91,3.01, 
106,19, F, lat, CCC,0,19,98,1,9,2,1,389.95,233.83,386.81,3.13, 
106,19, F, lat, ABA,1,28,100,1,10,2,1,559.97,233.88,557.01,2.96, 
106,19, F, lat, DCD,1,23,98,1,11,2,1,904.71,285.55,902.04,2.68, 
106,19, F, lat, AAA,0,30,102,1,12,2,1,783.57,339.2,780.62,2.94, 
106,19, F, lat, DCD,1,23,98,1,13,2,1,613.21,333.76,610.65,2.56, 
106,19, F, lat, ABA,1,28,100,1,14,2,1,640.49,279.5,637.31,3.18, 
106,19, F, lat, CDC,1,21,104,1,15,2,1,764.05,254.45,761.04,3.01, 
106,19, F, lat, BAB,1,34,102,1,16,2,1,683.78,0.39,680.45,3.32, 
106,19, F, lat, CCC,0,19,98,1,17,2,1,538.26,0.39,535.55,2.71, 
106,19, F, lat, AAA,0,30,102,1,18,2,1,570.66,206.87,567.65,3.01, 
106,19, F, lat, DCD,1,23,98,1,19,2,1,684.27,251.3,680.76,3.51, 
106,19, F, lat, ABA,1,28,100,1,20,2,1,601.98,241.7,599.1,2.88, 
106,19, F, lat, CDC,1,21,104,1,21,2,1,895.33,229.49,892.58,2.76, 
106,19, F, lat, AAA,0,30,102,1,22,2,1,610.12,268.47,606.94,3.18, 
106,19, F, lat, CCC,0,19,98,1,23,2,1,561.09,188.34,558.03,3.06, 
106,19, F, lat, ABA,1,28,100,1,24,2,1,545.4,184.56,541.9,3.49, 
106,19, F, lat, CDC,1,21,104,1,25,2,1,647.22,215.57,644.41,2.81, 
106,19, F, lat, AAA,0,30,102,1,26,2,1,558.86,514.07,556,2.87, 
106,19, F, lat, CDC,1,21,104,1,27,2,1,578.69,327.03,575.69,3, 
106,19, F, lat, BBB,0,32,100,1,28,2,1,456.91,224.13,454.07,2.84, 
106,19, F, lat, DCD,1,23,98,1,29,2,1,877.89,245.74,875.26,2.63, 
106,19, F, lat, BAB,1,34,102,1,30,2,1,683.55,249.59,678.84,4.71, 
106,19, F, lat, CDC,1,21,104,1,31,2,1,623.64,279.45,620.65,2.99, 
106,19, F, lat, BBB,0,32,100,1,32,2,1,483.44,152.46,480.4,3.04, 
106,19, F, lat, DDD,0,25,104,1,33,2,1,558.47,109.31,554.34,4.13, 
106,19, F, lat, AAA,0,30,102,1,34,2,1,456.66,0.39,453.97,2.7, 
106,19, F, lat, CDC,1,21,104,1,35,2,1,626.07,175.33,622.08,3.99, 
106,19, F, lat, AAA,0,30,102,1,36,2,1,493.78,229,490.67,3.11, 
106,19, F, lat, CDC,1,21,104,1,37,2,1,644.18,138.84,641.36,2.82, 
106,19, F, lat, BBB,0,32,100,1,38,2,1,484.31,266.51,481.57,2.74, 
106,19, F, lat, DDD,0,25,104,1,39,2,1,501.93,140.23,498.41,3.51, 
106,19, F, lat, AAA,0,30,102,1,40,2,1,455.45,101.22,452.56,2.89, 
106,19, F, lat, CCC,0,19,98,1,41,2,1,824.65,321.48,821.68,2.98, 
106,19, F, lat, AAA,0,30,102,1,42,2,1,564.64,254.71,561.85,2.79, 
106,19, F, lat, DCD,1,23,98,1,43,2,1,635.96,260.32,633.3,2.66, 
106,19, F, lat, BAB,1,34,102,1,44,2,1,602.51,218.69,599.62,2.89, 
106,19, F, lat, DCD,1,23,98,1,45,2,1,696.4,0.39,693.33,3.07, 
106,19, F, lat, BAB,1,34,102,1,46,2,1,599.11,134.99,595.48,3.62, 
106,19, F, lat, DCD,1,23,98,1,47,2,1,683.02,199.17,678.9,4.12, 
106,19, F, lat, ABA,1,28,100,1,48,2,1,574.36,208.26,571.3,3.06, 
106,19, F, lat, CCC,0,19,98,1,49,2,1,599.59,176.71,596.8,2.79, 
106,19, F, lat, ABA,1,28,100,1,50,2,1,616.56,289.83,613.66,2.9, 
106,19, F, lat, CCC,0,19,98,1,51,2,1,510.23,242.74,507.43,2.81, 
106,19, F, lat, ABA,1,28,100,1,52,2,1,687.48,326.48,684.38,3.1, 
106,19, F, lat, CDC,1,21,104,1,53,2,1,921.54,317.62,918.62,2.92, 
106,19, F, lat, ABA,1,28,100,1,54,2,1,654.61,415.35,651.72,2.89, 
106,19, F, lat, DCD,1,23,98,1,55,2,1,719.18,267.05,716,3.18, 
106,19, F, lat, BBB,0,32,100,1,56,2,1,481.58,317.35,477.23,4.34, 
106,19, F, lat, DDD,0,25,104,1,57,2,1,1733.61,451.42,1730.77,2.84, 
106,19, F, lat, ABA,1,28,100,1,58,2,1,592.9,954.24,589.86,3.04, 
106,19, F, lat, CDC,1,21,104,1,59,2,1,555.15,15.08,552.3,2.85, 
106,19, F, lat, BAB,1,34,102,1,60,2,1,597.22,263.21,594.15,3.07, 
106,19, F, lat, DDD,0,25,104,1,61,2,1,556.62,223.51,553.79,2.83, 
106,19, F, lat, BBB,0,32,100,1,62,2,1,456.98,284.91,452.57,4.41, 
106,19, F, lat, DDD,0,25,104,1,63,2,1,554.08,267.67,551,3.08, 
106,19, F, lat, BAB,1,34,102,1,64,2,1,541.17,220.19,538.41,2.76, 
106,19, F, lat, DDD,0,25,104,1,65,2,1,611.01,299.78,608.4,2.62, 
106,19, F, lat, BAB,1,34,102,1,66,2,1,686.86,108.89,684.16,2.7, 
106,19, F, lat, DCD,1,23,98,1,67,2,1,567.23,211.53,564.29,2.94, 
106,19, F, lat, BAB,1,34,102,1,68,2,1,698.37,0.39,695.71,2.66, 
106,19, F, lat, CCC,0,19,98,1,69,2,1,607.3,295.73,604.22,3.08, 
106,19, F, lat, AAA,0,30,102,1,70,2,1,484.61,249.15,481.42,3.2, 
106,19, F, lat, DCD,1,23,98,1,71,2,1,700.73,0.4,697.95,2.77, 
106,19, F, lat, BBB,0,32,100,1,72,2,1,470.37,257.06,466.1,4.26, 
106,19, F, lat, CCC,0,19,98,1,73,2,1,641.35,294.16,638.59,2.76, 
106,19, F, lat, AAA,0,30,102,1,74,2,1,761.01,229.9,757.96,3.06, 
106,19, F, lat, DDD,0,25,104,1,75,2,1,658.46,562.66,655.61,2.85, 
106,19, F, lat, AAA,0,30,102,1,76,2,1,755.16,470.02,752.33,2.84, 
106,19, F, lat, DDD,0,25,104,1,77,2,1,691.36,296.52,688.65,2.72, 
106,19, F, lat, BAB,1,34,102,1,78,2,1,769.99,926.26,767.16,2.84, 
106,19, F, lat, DDD,0,25,104,1,79,2,1,603.23,434.02,599.17,4.06, 
106,19, F, lat, BBB,0,32,100,1,80,2,1,436.08,295.75,428.83,7.25, 
106,19, F, lat, CDC,1,21,104,1,81,2,1,578.87,317.66,575.82,3.05, 
106,19, F, lat, BBB,0,32,100,1,82,2,1,608.45,273.23,605.45,3, 
106,19, F, lat, CDC,1,21,104,1,83,2,1,692.43,260.16,689.54,2.88, 
106,19, F, lat, BBB,0,32,100,1,84,2,1,577.95,523.26,575.24,2.71, 
106,19, F, lat, DCD,1,23,98,1,85,2,1,781.24,336.46,778.4,2.85, 
106,19, F, lat, BAB,1,34,102,1,86,2,1,690.06,416.28,687.15,2.91, 
106,19, F, lat, CCC,0,19,98,1,87,2,1,911.58,467.96,908.89,2.69, 
106,19, F, lat, BAB,1,34,102,1,88,2,1,912.23,405.83,909.48,2.76, 
106,19, F, lat, DDD,0,25,104,1,89,2,1,676.41,387.4,673.53,2.88, 
106,19, F, lat, BBB,0,32,100,1,90,2,1,538.36,815.24,535.68,2.68, 
106,19, F, lat, DDD,0,25,104,1,91,2,1,516.62,354.98,513.47,3.15, 
106,19, F, lat, BAB,1,34,102,1,92,2,1,540.5,279.47,537.76,2.74, 
106,19, F, lat, CCC,0,19,98,1,93,2,1,536.28,424.14,528.73,7.55, 
106,19, F, lat, BBB,0,32,100,1,94,2,1,509.83,258.87,506.96,2.87, 
106,19, F, lat, CCC,0,19,98,1,95,2,1,604.28,121.24,599.71,4.57, 
106,19, F, lat, BBB,0,32,100,1,96,2,1,461.01,250.92,458.08,2.93, 
106,19, F, lat, DCD,1,23,98,1,97,2,1,663.52,95.32,660.63,2.88, 
106,19, F, lat, CCC,0,19,98,1,1,3,1,560.87,469.4,557.96,2.92, 
106,19, F, lat, BBB,0,32,100,1,2,3,1,506.78,622.47,503.39,3.39, 
106,19, F, lat, DCD,1,23,98,1,3,3,1,612.91,359.04,609.99,2.92, 
106,19, F, lat, BAB,1,34,102,1,4,3,1,608.13,248.64,605.32,2.81, 
106,19, F, lat, DCD,1,23,98,1,5,3,1,606.17,590.92,603.25,2.93, 
106,19, F, lat, AAA,0,30,102,1,6,3,1,710.25,356.09,706.24,4.01, 
106,19, F, lat, CCC,0,19,98,1,7,3,1,588.7,439.93,585.83,2.88, 
106,19, F, lat, AAA,0,30,102,1,8,3,1,574.25,399.94,571.52,2.73, 
106,19, F, lat, DDD,0,25,104,1,9,3,1,600.07,248.02,596.83,3.24, 
106,19, F, lat, BBB,0,32,100,1,10,3,1,677.14,795.42,674.14,3.01, 
106,19, F, lat, CDC,1,21,104,1,11,3,1,644.19,442.81,641.13,3.07, 
106,19, F, lat, ABA,1,28,100,1,12,3,1,641.99,400.57,637.38,4.62, 
106,19, F, lat, DDD,0,25,104,1,13,3,1,567.32,619.26,564.23,3.09, 
106,19, F, lat, ABA,1,28,100,1,14,3,1,601.59,346.83,598.66,2.93, 
106,19, F, lat, DCD,1,23,98,1,15,3,1,714.57,432.96,711.7,2.87, 
106,19, F, lat, AAA,0,30,102,1,16,3,1,622.97,598.86,619.9,3.06, 
106,19, F, lat, DDD,0,25,104,1,17,3,1,809.98,455.46,805.62,4.36, 
106,19, F, lat, ABA,1,28,100,1,18,3,1,628.69,565.2,625.24,3.45, 
106,19, F, lat, CCC,0,19,98,1,19,3,1,685.24,603.69,682.39,2.85, 
106,19, F, lat, BBB,0,32,100,1,20,3,1,459.46,234.01,456.71,2.75, 
106,19, F, lat, CDC,1,21,104,1,21,3,1,831.36,232.4,828.39,2.97, 
106,19, F, lat, BBB,0,32,100,1,22,3,1,527.81,370.22,524.56,3.25, 
106,19, F, lat, CCC,0,19,98,1,23,3,1,652.36,689.84,648.92,3.44, 
106,19, F, lat, ABA,1,28,100,1,24,3,1,716.6,547.22,713.65,2.95, 
106,19, F, lat, CDC,1,21,104,1,25,3,1,670.95,834.06,666.43,4.52, 
106,19, F, lat, BAB,1,34,102,1,26,3,1,655.34,592.19,652.51,2.83, 
106,19, F, lat, DDD,0,25,104,1,27,3,1,647.6,439.03,644.74,2.86, 
106,19, F, lat, ABA,1,28,100,1,28,3,1,796.65,326.84,793.9,2.75, 
106,19, F, lat, DCD,1,23,98,1,29,3,1,649.32,465.45,646.24,3.08, 
106,19, F, lat, AAA,0,30,102,1,30,3,1,638.91,677.63,635.53,3.37, 
106,19, F, lat, CCC,0,19,98,1,31,3,1,681.37,743.4,678.47,2.9, 
106,19, F, lat, AAA,0,30,102,1,32,3,1,530.23,550.48,527.02,3.21, 
106,19, F, lat, CCC,0,19,98,1,33,3,1,519.4,267.57,516.7,2.7, 
106,19, F, lat, ABA,1,28,100,1,34,3,1,599.17,481.79,596.49,2.67, 
106,19, F, lat, CCC,0,19,98,1,35,3,1,445.41,0.4,442.47,2.94, 
106,19, F, lat, AAA,0,30,102,1,36,3,1,487.72,274.53,483.61,4.11, 
106,19, F, lat, CCC,0,19,98,1,37,3,1,533.71,338.49,530.27,3.44, 
106,19, F, lat, ABA,1,28,100,1,38,3,1,611.88,213.53,607.88,4, 
106,19, F, lat, DCD,1,23,98,1,39,3,1,516.92,0.41,514.02,2.9, 
106,19, F, lat, BAB,1,34,102,1,40,3,1,514.01,252.91,510.19,3.83, 
106,19, F, lat, DCD,1,23,98,1,41,3,1,523.06,0.41,519.68,3.38, 
106,19, F, lat, BBB,0,32,100,1,42,3,1,461.9,68.91,458.84,3.06, 
106,19, F, lat, CCC,0,19,98,1,43,3,1,491.54,0.4,487.53,4.01, 
106,19, F, lat, BAB,1,34,102,1,44,3,1,519.52,11,516.46,3.06, 
106,19, F, lat, DCD,1,23,98,1,45,3,1,568.22,91.99,565.01,3.21, 
106,19, F, lat, AAA,0,30,102,1,46,3,1,655.13,246.97,652.27,2.86, 
106,19, F, lat, CDC,1,21,104,1,47,3,1,1010.77,326.12,1007.86,2.91, 
106,19, F, lat, BAB,1,34,102,1,48,3,1,743.83,227.83,740.81,3.02, 
106,19, F, lat, CCC,0,19,98,1,49,3,1,547.97,485.61,544.95,3.01, 
106,19, F, lat, ABA,1,28,100,1,50,3,1,585.44,339.24,582.26,3.18, 
106,19, F, lat, DDD,0,25,104,1,51,3,1,619.79,277.76,616.82,2.97, 
106,19, F, lat, BBB,0,32,100,1,52,3,1,570.3,748.71,567.48,2.82, 
106,19, F, lat, DCD,1,23,98,1,53,3,1,726.35,1083.04,723.74,2.6, 
106,19, F, lat, AAA,0,30,102,1,54,3,1,467.63,181.01,463.39,4.24, 
106,19, F, lat, CCC,0,19,98,1,55,3,1,725.25,713.97,722.22,3.03, 
106,19, F, lat, ABA,1,28,100,1,56,3,1,788.86,365.9,785.86,2.99, 
106,19, F, lat, DCD,1,23,98,1,57,3,1,486.64,604.26,483.86,2.78, 
106,19, F, lat, ABA,1,28,100,1,58,3,1,610.57,780.7,607.74,2.83, 
106,19, F, lat, CDC,1,21,104,1,59,3,1,773.02,375.76,770.25,2.76, 
106,19, F, lat, BAB,1,34,102,1,60,3,1,830.53,928.19,827.23,3.3, 
106,19, F, lat, CDC,1,21,104,1,61,3,1,714.33,496.11,711.62,2.71, 
106,19, F, lat, AAA,0,30,102,1,62,3,1,655.05,315.82,651,4.05, 
106,19, F, lat, DDD,0,25,104,1,63,3,1,629.63,493.59,626.73,2.9, 
106,19, F, lat, BAB,1,34,102,1,64,3,1,713.15,598.67,710.06,3.09, 
106,19, F, lat, DCD,1,23,98,1,65,3,1,687.13,339.85,682.46,4.67, 
106,19, F, lat, AAA,0,30,102,1,66,3,1,2366.13,416.54,2363.28,2.84, 
106,19, F, lat, CDC,1,21,104,1,67,3,1,845.25,350.95,842.45,2.8, 
106,19, F, lat, AAA,0,30,102,1,68,3,1,472.99,0.41,470.23,2.76, 
106,19, F, lat, DCD,1,23,98,1,69,3,1,573.94,0.4,570.8,3.14, 
106,19, F, lat, BAB,1,34,102,1,70,3,1,584.22,0.39,581.35,2.87, 
106,19, F, lat, DCD,1,23,98,1,71,3,1,565.81,131.72,559.75,6.06, 
106,19, F, lat, BAB,1,34,102,1,72,3,1,659.67,124.07,656.11,3.56, 
106,19, F, lat, DDD,0,25,104,1,73,3,1,479.73,77.02,476.69,3.04, 
106,19, F, lat, BAB,1,34,102,1,74,3,1,561.81,1.14,558.83,2.98, 
106,19, F, lat, CDC,1,21,104,1,75,3,1,747.42,0.41,744.58,2.85, 
106,19, F, lat, BAB,1,34,102,1,76,3,1,511.6,260.75,508.97,2.64, 
106,19, F, lat, DDD,0,25,104,1,77,3,1,476.81,327.7,472.65,4.16, 
106,19, F, lat, ABA,1,28,100,1,78,3,1,610.93,163.5,608.16,2.78, 
106,19, F, lat, CCC,0,19,98,1,79,3,1,491.86,466.52,487.28,4.58, 
106,19, F, lat, AAA,0,30,102,1,80,3,1,495.88,36.54,492.83,3.04, 
106,19, F, lat, CCC,0,19,98,1,81,3,1,618.63,66.77,615.38,3.25, 
106,19, F, lat, ABA,1,28,100,1,82,3,1,536.99,10.82,533.71,3.27, 
106,19, F, lat, DDD,0,25,104,1,83,3,1,515,126.06,511.15,3.85, 
106,19, F, lat, BBB,0,32,100,1,84,3,1,496.76,78.39,493.95,2.81, 
106,19, F, lat, DDD,0,25,104,1,85,3,1,561.79,398,559.08,2.71, 
106,19, F, lat, BBB,0,32,100,1,86,3,1,567.67,303.75,563.66,4.01, 
106,19, F, lat, CDC,1,21,104,1,87,3,1,506.36,121.07,503.61,2.75, 
106,19, F, lat, BBB,0,32,100,1,88,3,1,514.46,0.45,511.65,2.82, 
106,19, F, lat, CDC,1,21,104,1,89,3,1,519.85,91.48,515.62,4.23, 
106,19, F, lat, BBB,0,32,100,1,90,3,1,455.57,0.4,452.71,2.86, 
106,19, F, lat, CDC,1,21,104,1,91,3,1,582.05,25.24,577.05,5, 
106,19, F, lat, BBB,0,32,100,1,92,3,1,470.5,29.13,466.45,4.06, 
106,19, F, lat, DDD,0,25,104,1,93,3,1,488.65,80.14,485.87,2.78, 
106,19, F, lat, BBB,0,32,100,1,94,3,1,515.79,432.48,512.96,2.83, 
106,19, F, lat, CDC,1,21,104,1,95,3,1,575.49,0.39,572.55,2.94, 
106,19, F, lat, BAB,1,34,102,1,96,3,1,1008.75,297.79,1005.98,2.76, 
106,19, F, lat, DDD,0,25,104,1,97,3,1,642.64,228.35,639.62,3.03, 
109,11, F, ea, DDD,0,30,102,1,1,1,1,898.68,273.13,893.07,5.61, 
109,11, F, ea, AAA,0,19,98,1,2,1,1,890.61,291.66,887.23,3.39, 
109,11, F, ea, CCC,0,32,100,1,3,1,1,868.44,220.99,864.87,3.56, 
109,11, F, ea, BBB,0,25,104,1,4,1,1,798.86,347.85,795.27,3.59, 
109,11, F, ea, CDC,1,34,102,1,5,1,1,881.85,282.68,878.38,3.47, 
109,11, F, ea, BAB,1,23,98,1,6,1,1,722.71,386.85,719.33,3.37, 
109,11, F, ea, DCD,1,28,100,1,7,1,1,807.02,323.46,803.57,3.45, 
109,11, F, ea, BBB,0,25,104,1,8,1,1,712.34,289,708.82,3.52, 
109,11, F, ea, DCD,1,28,100,1,9,1,1,783.53,310.73,779.93,3.6, 
109,11, F, ea, BBB,0,25,104,1,10,1,1,708.19,340.69,704.66,3.53, 
109,11, F, ea, DDD,0,30,102,1,11,1,1,621.1,254.78,617.11,3.99, 
109,11, F, ea, BBB,0,25,104,1,12,1,1,543.35,310.33,539.9,3.46, 
109,11, F, ea, CDC,1,34,102,1,13,1,1,970.38,578.34,966.73,3.65, 
109,11, F, ea, ABA,1,21,104,1,14,1,1,733.04,310.86,723.29,9.75, 
109,11, F, ea, DDD,0,30,102,1,15,1,1,736.53,531.7,733.02,3.51, 
109,11, F, ea, ABA,1,21,104,1,16,1,1,1968.18,1099.22,1964.67,3.51, 
109,11, F, ea, DCD,1,28,100,1,17,1,1,883.6,1030,880.17,3.44, 
109,11, F, ea, ABA,1,21,104,1,18,1,1,929.84,545.41,925.92,3.92, 
109,11, F, ea, DDD,0,30,102,1,19,1,1,817.53,579.18,810.55,6.98, 
109,11, F, ea, BBB,0,25,104,1,20,1,1,774.39,485.56,770.92,3.47, 
109,11, F, ea, DDD,0,30,102,1,21,1,1,934.08,1285.26,930.61,3.46, 
109,11, F, ea, ABA,1,21,104,1,22,1,1,901.6,1393.23,898.08,3.52, 
109,11, F, ea, DDD,0,30,102,1,23,1,1,945.23,430.55,941.61,3.62, 
109,11, F, ea, AAA,0,19,98,1,24,1,1,728.85,343.77,724.85,4, 
109,11, F, ea, CDC,1,34,100,1,25,1,0,1248.94,807.92,1245.33,3.61, 
109,11, F, ea, ABA,1,21,104,1,26,1,1,747.24,626.37,743.56,3.68, 
109,11, F, ea, DDD,0,30,102,1,27,1,1,868.78,391.28,865.22,3.57, 
109,11, F, ea, BAB,1,23,98,1,28,1,1,786.8,432.5,783.26,3.54, 
109,11, F, ea, DDD,0,30,102,1,29,1,1,754.3,489.04,750.63,3.67, 
109,11, F, ea, AAA,0,19,98,1,30,1,1,735.74,225.15,726.69,9.05, 
109,11, F, ea, CCC,0,32,100,1,31,1,1,818.63,390.65,815.27,3.36, 
109,11, F, ea, ABA,1,21,104,1,32,1,1,1001.45,328.6,997.98,3.47, 
109,11, F, ea, CCC,0,32,100,1,33,1,1,661.48,560.58,657.92,3.57, 
109,11, F, ea, BBB,0,25,104,1,34,1,1,782.13,418.25,778.82,3.31, 
109,11, F, ea, DCD,1,28,100,1,35,1,1,2414.27,437.13,2410.9,3.38, 
109,11, F, ea, BAB,1,23,98,1,36,1,1,824.32,323.42,820.82,3.5, 
109,11, F, ea, CDC,1,34,0,1,37,1,0,0,1284.94,0,3.5, 
109,11, F, ea, AAA,0,19,98,1,38,1,1,759.01,501.93,755.46,3.55, 
109,11, F, ea, CDC,1,34,102,1,39,1,1,1939.28,7223.84,1935.85,3.42, 
109,11, F, ea, BAB,1,23,98,1,40,1,1,826.72,456.19,822.83,3.89, 
109,11, F, ea, CCC,0,32,100,1,41,1,1,1279.12,419.54,1274.96,4.16, 
109,11, F, ea, BAB,1,23,98,1,42,1,1,781.37,275.84,777.88,3.49, 
109,11, F, ea, CDC,1,34,102,1,43,1,1,1818.03,747.43,1813.87,4.16, 
109,11, F, ea, BBB,0,25,104,1,44,1,1,1141.91,865.82,1133.18,8.72, 
109,11, F, ea, CCC,0,32,100,1,45,1,1,852.69,653.76,849.26,3.43, 
109,11, F, ea, AAA,0,19,98,1,46,1,1,923.24,375.92,916.07,7.17, 
109,11, F, ea, CCC,0,32,100,1,47,1,1,853.43,334.8,849.85,3.58, 
109,11, F, ea, ABA,1,21,104,1,48,1,1,811.93,377.34,808.45,3.48, 
109,11, F, ea, CDC,1,34,102,1,49,1,1,1256.09,320.52,1248.15,7.95, 
109,11, F, ea, AAA,0,19,98,1,50,1,1,739.7,318.1,736.28,3.43, 
109,11, F, ea, CDC,1,34,102,1,51,1,1,837.42,295.83,833.43,3.99, 
109,11, F, ea, AAA,0,19,98,1,52,1,1,966.25,317.56,962.61,3.64, 
109,11, F, ea, CDC,1,34,102,1,53,1,1,794.72,505.2,791.13,3.6, 
109,11, F, ea, BBB,0,25,104,1,54,1,1,897.79,393.73,894.35,3.44, 
109,11, F, ea, DCD,1,28,102,1,55,1,0,745.96,1923.46,742.43,3.53, 
109,11, F, ea, BAB,1,23,98,1,56,1,1,876.67,439.88,873.01,3.65, 
109,11, F, ea, DDD,0,30,102,1,57,1,1,888.85,547.58,885.36,3.49, 
109,11, F, ea, ABA,1,21,104,1,58,1,1,711.5,402.32,707.31,4.19, 
109,11, F, ea, CDC,1,34,102,1,59,1,1,822.01,713.07,818.68,3.33, 
109,11, F, ea, BAB,1,23,98,1,60,1,1,844.15,507.98,835.2,8.95, 
109,11, F, ea, CDC,1,34,102,1,61,1,1,1227.02,1057.32,1223.5,3.52, 
109,11, F, ea, ABA,1,21,104,1,62,1,1,978.86,698.17,975.38,3.48, 
109,11, F, ea, CCC,0,32,100,1,63,1,1,1242.13,982.15,1238.44,3.69, 
109,11, F, ea, BAB,1,23,98,1,64,1,1,778.9,656.83,775.28,3.62, 
109,11, F, ea, DCD,1,28,100,1,65,1,1,1331.78,260.65,1328.36,3.42, 
109,11, F, ea, AAA,0,19,98,1,66,1,1,780.98,362.18,777.57,3.4, 
109,11, F, ea, CCC,0,32,100,1,67,1,1,789.65,683.22,786.21,3.44, 
109,11, F, ea, BAB,1,23,98,1,68,1,1,778.15,514.44,774.53,3.62, 
109,11, F, ea, DCD,1,28,100,1,69,1,1,2088.63,430.36,2085.03,3.59, 
109,11, F, ea, AAA,0,19,98,1,70,1,1,761.78,2589.59,758.35,3.43, 
109,11, F, ea, CDC,1,34,102,1,71,1,1,1030.27,498.79,1026.71,3.56, 
109,11, F, ea, BAB,1,23,98,1,72,1,1,1033.27,1191.02,1029.7,3.57, 
109,11, F, ea, DCD,1,28,100,1,73,1,1,2227.41,643.54,2223.94,3.47, 
109,11, F, ea, BAB,1,23,98,1,74,1,1,860.22,495.79,856.75,3.47, 
109,11, F, ea, DCD,1,28,100,1,75,1,1,1408.16,565.61,1404.75,3.41, 
109,11, F, ea, BBB,0,25,104,1,76,1,1,912.59,474.84,909.13,3.45, 
109,11, F, ea, CCC,0,32,100,1,77,1,1,810.37,313.13,805.86,4.51, 
109,11, F, ea, AAA,0,19,98,1,78,1,1,647.9,345.79,644.3,3.6, 
109,11, F, ea, CCC,0,32,100,1,79,1,1,965.31,588.83,961.8,3.52, 
109,11, F, ea, BAB,1,23,98,1,80,1,1,808.7,334.76,805.09,3.61, 
109,11, F, ea, CCC,0,32,100,1,81,1,1,715.98,284.33,712.5,3.48, 
109,11, F, ea, AAA,0,19,98,1,82,1,1,849.33,285.92,845.58,3.75, 
109,11, F, ea, DCD,1,28,100,1,83,1,1,908.99,198.68,905.31,3.67, 
109,11, F, ea, BBB,0,25,104,1,84,1,1,840.76,340.92,836.88,3.88, 
109,11, F, ea, DCD,1,28,100,1,85,1,1,1187.26,697.05,1183.96,3.3, 
109,11, F, ea, BBB,0,25,104,1,86,1,1,922.19,265.53,918.83,3.35, 
109,11, F, ea, DDD,0,30,102,1,87,1,1,791.85,247.93,788.05,3.8, 
109,11, F, ea, BBB,0,25,104,1,88,1,1,503,184.61,499.57,3.43, 
109,11, F, ea, CCC,0,32,100,1,89,1,1,514.73,83.25,510.78,3.95, 
109,11, F, ea, AAA,0,19,98,1,90,1,1,521.31,193.61,516.55,4.77, 
109,11, F, ea, DDD,0,30,102,1,91,1,1,698,340.66,694.14,3.87, 
109,11, F, ea, ABA,1,21,104,1,92,1,1,658.99,492.24,655.69,3.3, 
109,11, F, ea, DDD,0,30,102,1,93,1,1,658.35,62,654.92,3.43, 
109,11, F, ea, ABA,1,21,104,1,94,1,1,1014.47,306.49,1011.08,3.39, 
109,11, F, ea, DCD,1,28,100,1,95,1,1,1766.93,274.94,1763.38,3.55, 
109,11, F, ea, ABA,1,21,104,1,96,1,1,1538.44,747.79,1535.01,3.43, 
109,11, F, ea, DDD,0,30,102,1,97,1,1,1475.22,638.3,1471.92,3.3, 
109,11, F, ea, DCD,1,28,100,1,1,2,1,1336.41,362.19,1332.89,3.52, 
109,11, F, ea, AAA,0,19,98,1,2,2,1,1375.39,303.11,1371.95,3.43, 
109,11, F, ea, DCD,1,28,100,1,3,2,1,805.78,353.84,802.47,3.31, 
109,11, F, ea, BAB,1,23,98,1,4,2,1,870.13,441.28,866.64,3.48, 
109,11, F, ea, CCC,0,32,100,1,5,2,1,761.53,377.89,758.02,3.51, 
109,11, F, ea, BAB,1,23,98,1,6,2,1,806.18,275.11,802.63,3.55, 
109,11, F, ea, CDC,1,34,102,1,7,2,1,906.17,339.64,902.64,3.52, 
109,11, F, ea, BAB,1,23,98,1,8,2,1,864.73,403.78,861.02,3.72, 
109,11, F, ea, CCC,0,32,100,1,9,2,1,1120.19,760.05,1116.85,3.34, 
109,11, F, ea, ABA,1,21,104,1,10,2,1,1176.35,909.29,1170.18,6.16, 
109,11, F, ea, DCD,1,28,100,1,11,2,1,1346.95,1829.52,1343.08,3.87, 
109,11, F, ea, AAA,0,19,98,1,12,2,1,1360.55,802.65,1357.18,3.37, 
109,11, F, ea, CCC,0,32,100,1,13,2,1,964.56,404.96,960.55,4.01, 
109,11, F, ea, BAB,1,23,98,1,14,2,1,1246.53,580.7,1237.31,9.21, 
109,11, F, ea, CCC,0,32,100,1,15,2,1,929.08,361.12,925.53,3.55, 
109,11, F, ea, BAB,1,23,98,1,16,2,1,924.07,1045.2,920.17,3.9, 
109,11, F, ea, DDD,0,30,102,1,17,2,1,1641.17,1085.83,1637.84,3.34, 
109,11, F, ea, ABA,1,21,104,1,18,2,1,991.07,957.52,987.62,3.45, 
109,11, F, ea, CDC,1,34,102,1,19,2,1,1722.57,934.77,1718.97,3.6, 
109,11, F, ea, AAA,0,19,98,1,20,2,1,965.23,1475.79,961.66,3.58, 
109,11, F, ea, CDC,1,34,102,1,21,2,1,1604.69,357.53,1601.21,3.47, 
109,11, F, ea, ABA,1,21,104,1,22,2,1,810.4,280.35,806.84,3.56, 
109,11, F, ea, DCD,1,28,100,1,23,2,1,990.08,252.82,986.56,3.52, 
109,11, F, ea, BBB,0,25,104,1,24,2,1,814.23,330.02,810.54,3.68, 
109,11, F, ea, CDC,1,34,102,1,25,2,1,975.56,550.39,972.06,3.5, 
109,11, F, ea, AAA,0,19,98,1,26,2,1,780.88,266.13,777.42,3.46, 
109,11, F, ea, CCC,0,32,100,1,27,2,1,625.67,117,621.7,3.96, 
109,11, F, ea, ABA,1,21,104,1,28,2,1,675.68,237.43,672.35,3.34, 
109,11, F, ea, DDD,0,30,102,1,29,2,1,596.47,154.24,592.2,4.27, 
109,11, F, ea, BBB,0,25,104,1,30,2,1,1383.36,293.79,1379.88,3.48, 
109,11, F, ea, CCC,0,32,100,1,31,2,1,467.98,125.84,464.47,3.5, 
109,11, F, ea, BBB,0,25,104,1,32,2,1,890.89,278.18,887.47,3.42, 
109,11, F, ea, CDC,1,34,102,1,33,2,1,1485.49,272.91,1482.12,3.37, 
109,11, F, ea, ABA,1,21,104,1,34,2,1,991.46,262.31,987.94,3.52, 
109,11, F, ea, DDD,0,30,102,1,35,2,1,916.57,223.09,913.06,3.51, 
109,11, F, ea, ABA,1,21,104,1,36,2,1,617.14,364.59,613.51,3.62, 
109,11, F, ea, CDC,1,34,102,1,37,2,1,953.07,673.05,949.52,3.55, 
109,11, F, ea, ABA,1,21,104,1,38,2,1,638.66,277.62,635.13,3.52, 
109,11, F, ea, DCD,1,28,100,1,39,2,1,2986.17,799.48,2982.63,3.54, 
109,11, F, ea, ABA,1,21,104,1,40,2,1,1179.24,731.05,1175.75,3.48, 
109,11, F, ea, CCC,0,32,100,1,41,2,1,1113.02,482,1109.6,3.42, 
109,11, F, ea, BAB,1,23,98,1,42,2,1,962.4,432.59,959.03,3.36, 
109,11, F, ea, DDD,0,30,102,1,43,2,1,1099.45,1076.14,1096.01,3.44, 
109,11, F, ea, BBB,0,25,104,1,44,2,1,1062.57,528.67,1059.28,3.29, 
109,11, F, ea, DDD,0,30,102,1,45,2,1,983.1,476.96,979.66,3.45, 
109,11, F, ea, AAA,0,19,98,1,46,2,1,1012.01,426.66,1008.45,3.56, 
109,11, F, ea, DCD,1,28,100,1,47,2,1,953.66,299.7,950.15,3.51, 
109,11, F, ea, BAB,1,23,98,1,48,2,1,768.91,336.65,765.3,3.62, 
109,11, F, ea, CDC,1,34,102,1,49,2,1,1524.58,599.42,1520.99,3.59, 
109,11, F, ea, AAA,0,19,98,1,50,2,1,953.07,410.58,949.41,3.66, 
109,11, F, ea, DCD,1,28,100,1,51,2,1,2501.73,362.49,2498.4,3.33, 
109,11, F, ea, BAB,1,23,98,1,52,2,1,845.9,601.73,842.38,3.52, 
109,11, F, ea, DCD,1,28,100,1,53,2,1,1678.25,561.62,1674.78,3.47, 
109,11, F, ea, BAB,1,23,98,1,54,2,1,1071.06,1042.1,1067.39,3.67, 
109,11, F, ea, DDD,0,30,102,1,55,2,1,1049.33,416.36,1040.26,9.07, 
109,11, F, ea, AAA,0,19,98,1,56,2,1,784.22,631.53,780.74,3.49, 
109,11, F, ea, CDC,1,34,102,1,57,2,1,1314.5,348.29,1311.05,3.45, 
109,11, F, ea, BAB,1,23,98,1,58,2,1,740.05,239.72,731.52,8.53, 
109,11, F, ea, CCC,0,32,100,1,59,2,1,826.38,470.12,823.05,3.33, 
109,11, F, ea, BBB,0,25,104,1,60,2,1,1278.39,384.92,1274.77,3.61, 
109,11, F, ea, DCD,1,28,100,1,61,2,1,1333.36,486.23,1330,3.36, 
109,11, F, ea, ABA,1,21,104,1,62,2,1,771.98,324.55,768.52,3.46, 
109,11, F, ea, DCD,1,28,100,1,63,2,1,939.16,922.61,935.11,4.05, 
109,11, F, ea, BBB,0,25,104,1,64,2,1,785.15,279.05,781.72,3.43, 
109,11, F, ea, DDD,0,30,102,1,65,2,1,1501.98,361.43,1498.33,3.65, 
109,11, F, ea, AAA,0,19,98,1,66,2,1,998.54,295.26,995.19,3.35, 
109,11, F, ea, CDC,1,34,102,1,67,2,1,1704.66,629.26,1700.28,4.38, 
109,11, F, ea, ABA,1,21,104,1,68,2,1,1110.89,336.89,1107.32,3.57, 
109,11, F, ea, DCD,1,28,100,1,69,2,1,1462.29,323.24,1458.71,3.59, 
109,11, F, ea, ABA,1,21,104,1,70,2,1,1184.86,512.04,1181.49,3.37, 
109,11, F, ea, DDD,0,30,102,1,71,2,1,973.09,389.26,969.61,3.48, 
109,11, F, ea, AAA,0,19,98,1,72,2,1,793.38,237.84,790.01,3.37, 
109,11, F, ea, DDD,0,30,102,1,73,2,1,695.61,287.8,692.02,3.59, 
109,11, F, ea, ABA,1,21,104,1,74,2,1,774.43,445.4,770.86,3.57, 
109,11, F, ea, DDD,0,30,102,1,75,2,1,1814.9,758.17,1811.42,3.48, 
109,11, F, ea, BAB,1,23,98,1,76,2,1,1070.36,311.27,1064.04,6.32, 
109,11, F, ea, DDD,0,30,102,1,77,2,1,1212.13,1578.69,1208.64,3.49, 
109,11, F, ea, BBB,0,25,102,1,78,2,0,1250.18,1013.13,1246.16,4.02, 
109,11, F, ea, CDC,1,34,102,1,79,2,1,960.76,480.5,957.15,3.6, 
109,11, F, ea, BAB,1,23,98,1,80,2,1,1000.64,1405.98,997.18,3.46, 
109,11, F, ea, DDD,0,30,102,1,81,2,1,1013.91,952.44,1010.55,3.36, 
109,11, F, ea, AAA,0,19,98,1,82,2,1,1471.32,619.68,1467.83,3.49, 
109,11, F, ea, CCC,0,32,100,1,83,2,1,815.34,371.07,811.93,3.41, 
109,11, F, ea, BBB,0,25,104,1,84,2,1,935.69,399.2,931.99,3.71, 
109,11, F, ea, CDC,1,34,102,1,85,2,1,1497.63,756.33,1494.04,3.59, 
109,11, F, ea, AAA,0,19,98,1,86,2,1,1232.62,327.92,1229.16,3.45, 
109,11, F, ea, CCC,0,32,100,1,87,2,1,1302.07,1039.11,1298.69,3.38, 
109,11, F, ea, BBB,0,25,104,1,88,2,1,883.39,412.38,880,3.39, 
109,11, F, ea, CCC,0,32,100,1,89,2,1,878.67,328.6,875.23,3.45, 
109,11, F, ea, AAA,0,19,98,1,90,2,1,862.12,496.53,858.57,3.55, 
109,11, F, ea, DCD,1,28,100,1,91,2,1,2206.92,952.52,2203.37,3.55, 
109,11, F, ea, BBB,0,25,104,1,92,2,1,1022.86,571.97,1019.42,3.43, 
109,11, F, ea, CDC,1,34,102,1,93,2,1,1377.01,456.76,1373.65,3.36, 
109,11, F, ea, BBB,0,25,104,1,94,2,1,858.58,636.16,855.2,3.38, 
109,11, F, ea, CCC,0,32,100,1,95,2,1,741.23,485.95,732.04,9.19, 
109,11, F, ea, BBB,0,25,104,1,96,2,1,1023.3,539.44,1020,3.3, 
109,11, F, ea, DCD,1,28,100,1,97,2,1,1583.17,728.41,1579.22,3.95, 
109,11, F, ea, CCC,0,32,100,1,1,3,1,829.93,345.12,826.46,3.46, 
109,11, F, ea, BBB,0,25,104,1,2,3,1,918.07,863.62,914.5,3.58, 
109,11, F, ea, CDC,1,34,102,1,3,3,1,905.52,346.39,902.09,3.43, 
109,11, F, ea, AAA,0,19,98,1,4,3,1,982.69,525.36,979.2,3.49, 
109,11, F, ea, DDD,0,30,102,1,5,3,1,840.88,823.02,833.78,7.1, 
109,11, F, ea, ABA,1,21,104,1,6,3,1,1051.93,1070,1048.43,3.5, 
109,11, F, ea, CCC,0,32,100,1,7,3,1,1031.24,740.53,1027.39,3.85, 
109,11, F, ea, BAB,1,23,98,1,8,3,1,1059.08,311.61,1055.58,3.5, 
109,11, F, ea, CDC,1,34,102,1,9,3,1,1901.86,297.6,1898.43,3.43, 
109,11, F, ea, BAB,1,23,98,1,10,3,1,821.86,316.61,818.42,3.44, 
109,11, F, ea, CCC,0,32,100,1,11,3,1,839.16,261.8,829.99,9.17, 
109,11, F, ea, BAB,1,23,98,1,12,3,1,813.24,290.15,809.67,3.57, 
109,11, F, ea, DDD,0,30,102,1,13,3,1,943.29,809.53,935.4,7.88, 
109,11, F, ea, BBB,0,25,104,1,14,3,1,843.24,129.63,839.72,3.52, 
109,11, F, ea, CDC,1,34,102,1,15,3,1,908.93,887,905.52,3.41, 
109,11, F, ea, BAB,1,23,98,1,16,3,1,1056.65,2555.52,1053.34,3.31, 
109,11, F, ea, DCD,1,28,0,1,17,3,0,0,744.96,0,3.31, 
109,11, F, ea, AAA,0,19,98,1,18,3,1,704.17,295.87,700.74,3.43, 
109,11, F, ea, DDD,0,30,102,1,19,3,1,759.27,286.17,755.95,3.32, 
109,11, F, ea, BBB,0,25,104,1,20,3,1,851.07,687.76,847.45,3.62, 
109,11, F, ea, DDD,0,30,102,1,21,3,1,1792.5,543.85,1789.08,3.43, 
109,11, F, ea, BAB,1,23,98,1,22,3,1,1261.46,552.91,1257.83,3.63, 
109,11, F, ea, DCD,1,28,100,1,23,3,1,1350.77,383.42,1347.32,3.45, 
109,11, F, ea, BAB,1,23,98,1,24,3,1,848.7,2189.61,845.01,3.69, 
109,11, F, ea, CCC,0,32,100,1,25,3,1,1260.73,408.84,1257.19,3.53, 
109,11, F, ea, BAB,1,23,98,1,26,3,1,780.5,513.82,777.1,3.4, 
109,11, F, ea, DDD,0,30,102,1,27,3,1,894.89,376.81,891.35,3.54, 
109,11, F, ea, BBB,0,25,104,1,28,3,1,875.21,430.95,870.87,4.34, 
109,11, F, ea, DDD,0,30,102,1,29,3,1,1017.71,389.61,1014.36,3.35, 
109,11, F, ea, ABA,1,21,104,1,30,3,1,897.9,434.39,894.42,3.48, 
109,11, F, ea, CDC,1,34,102,1,31,3,1,1268.52,1024.53,1264.99,3.53, 
109,11, F, ea, AAA,0,19,98,1,32,3,1,1026.83,928.68,1023.2,3.63, 
109,11, F, ea, DDD,0,30,102,1,33,3,1,1447.49,1731.91,1443.75,3.74, 
109,11, F, ea, AAA,0,19,98,1,34,3,1,1237.91,1226,1234.19,3.72, 
109,11, F, ea, CDC,1,34,102,1,35,3,1,1380.33,780.9,1376.81,3.53, 
109,11, F, ea, ABA,1,21,104,1,36,3,1,1529.03,628.15,1525.53,3.5, 
109,11, F, ea, DDD,0,30,102,1,37,3,1,829.96,481.58,826.04,3.93, 
109,11, F, ea, AAA,0,19,98,1,38,3,1,978.29,624.1,974.9,3.39, 
109,11, F, ea, CDC,1,34,102,1,39,3,1,986.42,497.37,982.91,3.51, 
109,11, F, ea, BAB,1,23,98,1,40,3,1,912.36,656.5,909.04,3.32, 
109,11, F, ea, DDD,0,30,102,1,41,3,1,864.62,324.68,860.34,4.28, 
109,11, F, ea, BAB,1,23,98,1,42,3,1,838.67,406.51,829.16,9.52, 
109,11, F, ea, CDC,1,34,102,1,43,3,1,942.45,337.47,933.15,9.3, 
109,11, F, ea, BAB,1,23,98,1,44,3,1,741.9,399.22,731.9,10, 
109,11, F, ea, CDC,1,34,102,1,45,3,1,999.86,423.05,996.03,3.83, 
109,11, F, ea, BBB,0,25,104,1,46,3,1,914.63,410.01,911.19,3.45, 
109,11, F, ea, CCC,0,32,100,1,47,3,1,810.76,441.43,806.93,3.83, 
109,11, F, ea, AAA,0,19,98,1,48,3,1,846.66,734.13,837.56,9.1, 
109,11, F, ea, CCC,0,32,100,1,49,3,1,844.47,1297.26,840.91,3.56, 
109,11, F, ea, ABA,1,21,104,1,50,3,1,1064.58,549.67,1060.97,3.61, 
109,11, F, ea, CDC,1,34,102,1,51,3,1,922.56,1371.08,919.14,3.42, 
109,11, F, ea, ABA,1,21,104,1,52,3,1,984.23,1160.75,980.73,3.5, 
109,11, F, ea, DCD,1,28,100,1,53,3,1,1286.2,378.3,1282.67,3.53, 
109,11, F, ea, AAA,0,19,98,1,54,3,1,844.51,369.72,841.1,3.41, 
109,11, F, ea, CDC,1,34,102,1,55,3,1,1212.3,474.39,1208.84,3.46, 
109,11, F, ea, ABA,1,21,104,1,56,3,1,874.34,654.27,870.81,3.53, 
109,11, F, ea, DCD,1,28,100,1,57,3,1,1456.07,1172.54,1452.63,3.44, 
109,11, F, ea, AAA,0,19,98,1,58,3,1,1289.52,1173.23,1285.99,3.53, 
109,11, F, ea, CCC,0,32,100,1,59,3,1,2547.97,1279.34,2544.48,3.49, 
109,11, F, ea, ABA,1,21,104,1,60,3,1,1135.73,594.07,1132.24,3.49, 
109,11, F, ea, CDC,1,34,102,1,61,3,1,2150.42,1047.78,2147.04,3.37, 
109,11, F, ea, ABA,1,21,104,1,62,3,1,846.92,1742.58,843.44,3.47, 
109,11, F, ea, DCD,1,28,100,1,63,3,1,1556.17,1631.52,1552.75,3.43, 
109,11, F, ea, BBB,0,25,104,1,64,3,1,1108.2,1086.78,1104.66,3.53, 
109,11, F, ea, CDC,1,34,102,1,65,3,1,1679.99,691.6,1676.52,3.47, 
109,11, F, ea, BAB,1,23,98,1,66,3,1,866.71,342.07,863.19,3.52, 
109,11, F, ea, CCC,0,32,100,1,67,3,1,794.99,401.95,791.48,3.51, 
109,11, F, ea, BBB,0,25,104,1,68,3,1,1011.61,473.88,1008.22,3.39, 
109,11, F, ea, DCD,1,28,100,1,69,3,1,1410.45,1135.53,1407.05,3.4, 
109,11, F, ea, BBB,0,25,104,1,70,3,1,895.62,777.19,892.18,3.44, 
109,11, F, ea, DCD,1,28,0,1,71,3,0,0,784.71,0,3.44, 
109,11, F, ea, AAA,0,19,98,1,72,3,1,1859.06,681.89,1855.3,3.76, 
109,11, F, ea, DCD,1,28,100,1,73,3,1,1274.26,317.82,1270.89,3.37, 
109,11, F, ea, BBB,0,25,104,1,74,3,1,910.12,294.03,906.77,3.35, 
109,11, F, ea, DCD,1,28,100,1,75,3,1,1508.18,287.48,1504.84,3.35, 
109,11, F, ea, BAB,1,23,98,1,76,3,1,773.89,332.98,770.34,3.56, 
109,11, F, ea, DDD,0,30,102,1,77,3,1,1273.97,310.44,1270.44,3.54, 
109,11, F, ea, AAA,0,19,98,1,78,3,1,801.87,825.23,798.05,3.83, 
109,11, F, ea, DCD,1,28,100,1,79,3,1,2114.62,1639.22,2111,3.61, 
109,11, F, ea, AAA,0,19,98,1,80,3,1,1100.76,893.28,1097.36,3.41, 
109,11, F, ea, CCC,0,32,100,1,81,3,1,1205,931.65,1201.52,3.47, 
109,11, F, ea, BBB,0,25,104,1,82,3,1,923.17,427.5,919.79,3.38, 
109,11, F, ea, CCC,0,32,100,1,83,3,1,853.46,328.23,849.88,3.58, 
109,11, F, ea, AAA,0,19,98,1,84,3,1,821.1,322.24,817.54,3.56, 
109,11, F, ea, CCC,0,32,100,1,85,3,1,785.04,278.04,781.71,3.33, 
109,11, F, ea, ABA,1,21,104,1,86,3,1,1989.15,285.99,1985.53,3.62, 
109,11, F, ea, DCD,1,28,100,1,87,3,1,1318.22,703.18,1314.8,3.42, 
109,11, F, ea, ABA,1,21,104,1,88,3,1,662.39,240.97,658.86,3.53, 
109,11, F, ea, CCC,0,32,100,1,89,3,1,620.09,158.07,616.26,3.83, 
109,11, F, ea, BBB,0,25,104,1,90,3,1,867.28,261.76,863.78,3.5, 
109,11, F, ea, DCD,1,28,100,1,91,3,1,940.71,397.79,936.79,3.92, 
109,11, F, ea, BBB,0,25,104,1,92,3,1,791.01,350.26,787.47,3.54, 
109,11, F, ea, CCC,0,32,100,1,93,3,1,769.45,568.62,765.93,3.52, 
109,11, F, ea, ABA,1,21,104,1,94,3,1,1004.68,210.93,1001.14,3.54, 
109,11, F, ea, DDD,0,30,102,1,95,3,1,1030.22,505.03,1026.33,3.89, 
109,11, F, ea, ABA,1,21,104,1,96,3,1,977.3,694.91,973.97,3.33, 
109,11, F, ea, DDD,0,30,102,1,97,3,1,1016.46,555.7,1013.11,3.34, 
110,15, F, mid2, CDC,1,29,104,1,1,1,1,462.48,292.57,457.75,4.73, 
110,15, F, mid2, BBB,0,19,98,1,2,1,1,687.91,254.53,685.04,2.87, 
110,15, F, mid2, DDD,0,25,104,1,3,1,1,556.38,253.98,553.49,2.89, 
110,15, F, mid2, BAB,1,20,100,1,4,1,1,907.52,264.49,904.59,2.93, 
110,15, F, mid2, CDC,1,29,104,1,5,1,1,571.81,223.93,568.75,3.06, 
110,15, F, mid2, AAA,0,32,100,1,6,1,1,719.7,266.57,716.62,3.08, 
110,15, F, mid2, CCC,0,30,102,1,7,1,1,439.99,270.89,436.77,3.22, 
110,15, F, mid2, ABA,1,31,98,1,8,1,1,547.26,319.31,544.33,2.93, 
110,15, F, mid2, CDC,1,29,104,1,9,1,1,648.95,265.99,645.67,3.29, 
110,15, F, mid2, BBB,0,19,98,1,10,1,1,748.29,288.73,745.17,3.12, 
110,15, F, mid2, DDD,0,25,104,1,11,1,1,755.29,312.35,752.21,3.08, 
110,15, F, mid2, BAB,1,20,100,1,12,1,1,484.68,305.59,481.83,2.85, 
110,15, F, mid2, CDC,1,29,104,1,13,1,1,653.36,243.19,650.01,3.36, 
110,15, F, mid2, AAA,0,32,100,1,14,1,1,617.68,257.65,614.78,2.9, 
110,15, F, mid2, CCC,0,30,102,1,15,1,1,502.52,276.61,499.59,2.92, 
110,15, F, mid2, AAA,0,32,100,1,16,1,1,713.91,262.3,710.82,3.09, 
110,15, F, mid2, DDD,0,25,104,1,17,1,1,714.07,264.15,711.26,2.8, 
110,15, F, mid2, AAA,0,32,100,1,18,1,1,611.96,421.87,608.37,3.59, 
110,15, F, mid2, CDC,1,29,104,1,19,1,1,539.85,248.77,536.97,2.88, 
110,15, F, mid2, BBB,0,19,98,1,20,1,1,654.89,357.35,651.75,3.13, 
110,15, F, mid2, CCC,0,30,102,1,21,1,1,492.43,267.73,489.33,3.1, 
110,15, F, mid2, BAB,1,20,100,1,22,1,1,479.01,271.25,475.99,3.02, 
110,15, F, mid2, CCC,0,30,102,1,23,1,1,442.98,235.69,439.83,3.15, 
110,15, F, mid2, AAA,0,32,100,1,24,1,1,541.5,300.83,533.14,8.36, 
110,15, F, mid2, CCC,0,30,102,1,25,1,1,481.22,278.51,477.98,3.24, 
110,15, F, mid2, BBB,0,19,98,1,26,1,1,653.88,266.29,648.99,4.89, 
110,15, F, mid2, CDC,1,29,104,1,27,1,1,568.22,273.37,565.06,3.17, 
110,15, F, mid2, BBB,0,19,98,1,28,1,1,700.73,283.03,697.55,3.17, 
110,15, F, mid2, DDD,0,25,104,1,29,1,1,559.26,306.77,556.51,2.75, 
110,15, F, mid2, BAB,1,20,100,1,30,1,1,537.97,281.05,530.69,7.28, 
110,15, F, mid2, CDC,1,29,104,1,31,1,1,590.67,230.92,587.48,3.19, 
110,15, F, mid2, BAB,1,20,100,1,32,1,1,716.1,345.87,713.04,3.06, 
110,15, F, mid2, DDD,0,25,104,1,33,1,1,611.82,244.34,608.64,3.17, 
110,15, F, mid2, BBB,0,19,98,1,34,1,1,689.12,376.02,686.07,3.05, 
110,15, F, mid2, CDC,1,29,104,1,35,1,1,644.87,297.26,641.82,3.06, 
110,15, F, mid2, AAA,0,32,100,1,36,1,1,543.49,263.5,536.92,6.57, 
110,15, F, mid2, DCD,1,26,102,1,37,1,1,651.95,227.81,647.31,4.63, 
110,15, F, mid2, BAB,1,20,100,1,38,1,1,585.05,268.2,582.12,2.93, 
110,15, F, mid2, DDD,0,25,104,1,39,1,1,625.79,193.98,622.29,3.5, 
110,15, F, mid2, AAA,0,32,100,1,40,1,1,585.47,266.34,582.55,2.93, 
110,15, F, mid2, CDC,1,29,104,1,41,1,1,1024.41,288.14,1021.37,3.04, 
