subid, subage, gender, group, code, targ, resp, unknown, trial, block, Acc, RT, ts_RT, diff,
102,25, F, adult,1,5,32,132,1,1,1,614.84,611.58,3.26, 
102,25, F, adult,1,2,32,132,2,1,1,418.84,415.53,3.31, 
102,25, F, adult,1,4,32,132,3,1,1,372.09,368.95,3.14, 
102,25, F, adult,1,8,32,132,4,1,1,312.2,309.16,3.05, 
102,25, F, adult,1,4,32,132,5,1,1,402.12,399.02,3.1, 
102,25, F, adult,1,2,32,132,6,1,1,293.25,288.84,4.42, 
102,25, F, adult,3,111,97,132,7,1,999,2128.2,2125.28,2.92, 
102,25, F, adult,1,4,32,132,8,1,1,448.63,445.01,3.62, 
102,25, F, adult,1,7,32,132,9,1,1,498.18,495.43,2.75, 
102,25, F, adult,2,3,0,132,10,1,1,0,0,0, 
102,25, F, adult,1,4,32,132,11,1,1,378.66,374.62,4.05, 
102,25, F, adult,1,6,32,132,12,1,1,349.38,346.07,3.32, 
102,25, F, adult,1,4,32,132,13,1,1,415.61,412.55,3.06, 
102,25, F, adult,2,3,0,132,14,1,1,0,0,0, 
102,25, F, adult,1,9,32,132,15,1,1,448.66,445.66,3.01, 
102,25, F, adult,1,9,32,132,16,1,1,335.51,332.32,3.19, 
102,25, F, adult,1,7,32,132,17,1,1,380.01,373.3,6.72, 
102,25, F, adult,1,6,32,132,18,1,1,293.47,286.56,6.91, 
102,25, F, adult,1,4,32,132,19,1,1,522.76,519.86,2.9, 
102,25, F, adult,1,2,32,132,20,1,1,379.81,376.84,2.97, 
102,25, F, adult,1,7,32,132,21,1,1,368.81,365.92,2.89, 
102,25, F, adult,1,2,32,132,22,1,1,292.63,288.62,4.01, 
102,25, F, adult,3,111,100,132,23,1,999,6917.5,6914.18,3.32, 
102,25, F, adult,1,8,32,132,24,1,1,463.41,460.4,3.01, 
102,25, F, adult,1,6,32,132,25,1,1,371.84,367.82,4.02, 
102,25, F, adult,1,1,32,132,26,1,1,434.76,431.42,3.34, 
102,25, F, adult,2,3,0,132,27,1,1,0,0,0, 
102,25, F, adult,1,5,32,132,28,1,1,261.36,257.4,3.96, 
102,25, F, adult,1,2,32,132,29,1,1,302.87,298.07,4.8, 
102,25, F, adult,1,8,32,132,30,1,1,355.36,348.19,7.18, 
102,25, F, adult,1,5,32,132,31,1,1,410.75,407.75,3, 
102,25, F, adult,1,7,32,132,32,1,1,575.72,571.66,4.06, 
102,25, F, adult,1,9,32,132,33,1,1,616.54,613.7,2.83, 
102,25, F, adult,2,3,0,132,34,1,1,0,0,0, 
102,25, F, adult,1,1,32,132,35,1,1,463.5,460.77,2.72, 
102,25, F, adult,1,2,32,132,36,1,1,580.87,578.03,2.85, 
102,25, F, adult,1,7,32,132,37,1,1,463.07,460.04,3.04, 
102,25, F, adult,3,111,100,132,38,1,999,1765.51,1762.75,2.76, 
102,25, F, adult,1,9,32,132,39,1,1,416.86,412.82,4.04, 
102,25, F, adult,1,5,32,132,40,1,1,535.8,527.64,8.16, 
102,25, F, adult,1,9,32,132,41,1,1,397.03,394.1,2.93, 
102,25, F, adult,2,3,0,132,42,1,1,0,0,0, 
102,25, F, adult,1,7,32,132,43,1,1,373.73,369.55,4.18, 
102,25, F, adult,1,7,32,132,44,1,1,297.32,293.26,4.06, 
102,25, F, adult,1,6,32,132,45,1,1,265.3,262.49,2.8, 
102,25, F, adult,1,7,32,132,46,1,1,328.95,326.11,2.84, 
102,25, F, adult,1,5,32,132,47,1,1,605.2,602.5,2.71, 
102,25, F, adult,1,1,32,132,48,1,1,753.47,750.57,2.9, 
102,25, F, adult,1,2,32,132,49,1,1,667.44,664.23,3.21, 
102,25, F, adult,1,2,32,132,50,1,1,462.96,460.12,2.84, 
102,25, F, adult,1,9,32,132,51,1,1,458.51,455.49,3.02, 
102,25, F, adult,2,3,0,132,52,1,1,0,0,0, 
102,25, F, adult,1,7,32,132,53,1,1,352.72,349.92,2.79, 
102,25, F, adult,1,7,32,132,54,1,1,396.99,390.02,6.97, 
102,25, F, adult,1,8,32,132,55,1,1,332.42,325.08,7.33, 
102,25, F, adult,1,5,32,132,56,1,1,344.67,333.32,11.35, 
102,25, F, adult,1,9,32,132,57,1,1,349.56,345.42,4.14, 
102,25, F, adult,1,6,32,132,58,1,1,926.56,923.75,2.81, 
102,25, F, adult,1,7,32,132,59,1,1,675.35,672.61,2.74, 
102,25, F, adult,1,1,32,132,60,1,1,622.1,619.24,2.86, 
102,25, F, adult,1,2,32,132,61,1,1,976.68,973.86,2.82, 
102,25, F, adult,1,1,32,132,62,1,1,515.46,512.56,2.89, 
102,25, F, adult,1,8,32,132,63,1,1,641.73,638.81,2.92, 
102,25, F, adult,1,4,32,132,64,1,1,626.45,622.94,3.51, 
102,25, F, adult,2,3,0,132,65,1,1,0,0,0, 
102,25, F, adult,1,8,32,132,66,1,1,351.38,347.61,3.76, 
102,25, F, adult,1,5,32,132,67,1,1,286.08,282.41,3.68, 
102,25, F, adult,1,8,32,132,68,1,1,415.79,411.78,4.01, 
102,25, F, adult,1,9,32,132,69,1,1,404.64,400.49,4.15, 
102,25, F, adult,1,4,32,132,70,1,1,444.44,439.98,4.46, 
102,25, F, adult,3,111,100,132,71,1,999,1800,1796.89,3.12, 
102,25, F, adult,1,6,32,132,72,1,1,376.73,369.85,6.87, 
102,25, F, adult,1,1,32,132,73,1,1,400.64,396.11,4.52, 
102,25, F, adult,1,4,32,132,74,1,1,314.67,311.74,2.93, 
102,25, F, adult,2,3,0,132,75,1,1,0,0,0, 
102,25, F, adult,1,6,32,132,76,1,1,321.13,317.19,3.93, 
102,25, F, adult,1,6,32,132,77,1,1,277.12,273.63,3.49, 
102,25, F, adult,1,2,32,132,78,1,1,110.56,103.75,6.8, 
102,25, F, adult,1,6,32,132,79,1,1,394.55,390.41,4.14, 
102,25, F, adult,1,4,32,132,80,1,1,351.3,347.02,4.28, 
102,25, F, adult,1,9,32,132,81,1,1,446.52,442.38,4.14, 
102,25, F, adult,1,8,32,132,82,1,1,403.25,399.03,4.21, 
102,25, F, adult,1,1,32,132,83,1,1,406.05,401.95,4.11, 
102,25, F, adult,1,9,32,132,84,1,1,495.16,491.8,3.36, 
102,25, F, adult,2,3,0,132,85,1,1,0,0,0, 
102,25, F, adult,1,2,32,132,86,1,1,339.04,334.83,4.21, 
102,25, F, adult,1,6,32,132,87,1,1,339.81,337.05,2.75, 
102,25, F, adult,1,6,32,132,88,1,1,406.39,402.28,4.11, 
102,25, F, adult,1,9,32,132,89,1,1,661.91,659.01,2.9, 
102,25, F, adult,3,111,100,132,90,1,999,6978.87,6975.84,3.03, 
102,25, F, adult,1,4,32,132,91,1,1,427.89,424.04,3.86, 
102,25, F, adult,1,7,32,132,92,1,1,373.57,369.41,4.16, 
102,25, F, adult,1,1,32,132,93,1,1,378.37,374.36,4.01, 
102,25, F, adult,1,7,32,132,94,1,1,368.35,361.58,6.77, 
102,25, F, adult,1,6,32,132,95,1,1,398.26,394.22,4.04, 
102,25, F, adult,1,2,32,132,96,1,1,425.59,421.44,4.15, 
102,25, F, adult,1,1,32,132,97,1,1,492.06,484.99,7.06, 
102,25, F, adult,1,7,32,132,98,1,1,441.12,436.99,4.14, 
102,25, F, adult,2,3,0,132,99,1,1,0,0,0, 
102,25, F, adult,1,8,32,132,100,1,1,334.09,329.79,4.3, 
102,25, F, adult,1,1,32,132,101,1,1,354.91,350.87,4.04, 
102,25, F, adult,1,5,32,132,102,1,1,310.45,303.44,7.02, 
102,25, F, adult,2,3,0,132,103,1,1,0,0,0, 
102,25, F, adult,1,4,32,132,104,1,1,298.74,294.68,4.06, 
102,25, F, adult,1,6,32,132,105,1,1,328.62,321.3,7.33, 
102,25, F, adult,1,5,32,132,106,1,1,412.09,406.75,5.34, 
102,25, F, adult,1,1,32,132,107,1,1,496.42,492.95,3.48, 
102,25, F, adult,2,3,0,132,108,1,1,0,0,0, 
102,25, F, adult,1,5,32,132,109,1,1,441.86,437.79,4.07, 
102,25, F, adult,1,1,32,132,110,1,1,390.67,383.81,6.86, 
102,25, F, adult,1,8,32,132,111,1,1,558.35,555.38,2.97, 
102,25, F, adult,2,3,0,132,112,1,1,0,0,0, 
102,25, F, adult,1,5,32,132,113,1,1,495.63,488.84,6.79, 
102,25, F, adult,1,9,32,132,114,1,1,353,349.08,3.91, 
102,25, F, adult,1,4,32,132,115,1,1,312.08,309.43,2.65, 
102,25, F, adult,1,8,32,132,116,1,1,317.45,310.63,6.81, 
102,25, F, adult,1,5,32,132,117,1,1,368.95,364.8,4.14, 
102,25, F, adult,1,5,32,132,118,1,1,443.16,440.26,2.9, 
102,25, F, adult,1,5,32,132,119,1,1,353.13,349.06,4.07, 
102,25, F, adult,1,9,32,132,120,1,1,417.68,413.64,4.04, 
102,25, F, adult,1,2,32,132,121,1,1,567.11,559.78,7.32, 
102,25, F, adult,1,9,32,132,122,1,1,710.85,707.92,2.93, 
102,25, F, adult,1,8,32,132,123,1,1,440.49,428.04,12.45, 
102,25, F, adult,1,8,32,132,124,1,1,263.99,260.08,3.91, 
102,25, F, adult,1,1,32,132,125,1,1,450.98,446.73,4.25, 
102,25, F, adult,1,2,32,132,126,1,1,553.84,550.53,3.31, 
102,25, F, adult,1,8,32,132,127,1,1,410.12,403.35,6.77, 
102,25, F, adult,2,3,0,132,128,1,1,0,0,0, 
102,25, F, adult,1,4,32,132,129,1,1,279.33,275.29,4.04, 
102,25, F, adult,1,1,32,132,130,1,1,247.05,240.87,6.19, 
102,25, F, adult,1,6,32,132,131,1,1,285.38,281.2,4.18, 
102,25, F, adult,1,7,32,132,1,2,1,4.18,0.26,3.92, 
102,25, F, adult,1,7,32,132,2,2,1,622.38,619.38,3, 
102,25, F, adult,1,8,32,132,3,2,1,343.69,339.44,4.25, 
102,25, F, adult,1,4,32,132,4,2,1,306.88,299.91,6.97, 
102,25, F, adult,1,4,32,132,5,2,1,270.77,265.93,4.84, 
102,25, F, adult,1,2,32,132,6,2,1,396.08,391.61,4.47, 
102,25, F, adult,1,6,32,132,7,2,1,503.34,499.24,4.09, 
102,25, F, adult,1,8,32,132,8,2,1,360.85,356.84,4.01, 
102,25, F, adult,1,1,32,132,9,2,1,347.21,344.13,3.08, 
102,25, F, adult,2,3,0,132,10,2,1,0,0,0, 
102,25, F, adult,1,9,32,132,11,2,1,377.48,373.51,3.97, 
102,25, F, adult,1,4,32,132,12,2,1,331.01,328.19,2.82, 
102,25, F, adult,1,4,32,132,13,2,1,623.53,619.03,4.5, 
102,25, F, adult,1,7,32,132,14,2,1,595.06,592.47,2.59, 
102,25, F, adult,1,2,32,132,15,2,1,524.2,517.27,6.93, 
102,25, F, adult,1,2,32,132,16,2,1,407.79,404.89,2.9, 
102,25, F, adult,1,1,32,132,17,2,1,362.32,359.39,2.94, 
102,25, F, adult,1,1,32,132,18,2,1,413.89,406.8,7.1, 
102,25, F, adult,2,3,0,132,19,2,1,0,0,0, 
102,25, F, adult,1,5,32,132,20,2,1,355.95,352.95,3, 
102,25, F, adult,1,6,32,132,21,2,1,375.47,371.43,4.04, 
102,25, F, adult,1,4,32,132,22,2,1,641.95,638.75,3.19, 
102,25, F, adult,3,111,98,132,23,2,999,2396.34,2393.07,3.28, 
102,25, F, adult,1,9,32,132,24,2,1,596.15,592.08,4.07, 
102,25, F, adult,1,5,32,132,25,2,1,649.37,643.56,5.81, 
102,25, F, adult,1,7,32,132,26,2,1,644.82,642.08,2.74, 
102,25, F, adult,1,6,32,132,27,2,1,327.64,322.83,4.8, 
102,25, F, adult,1,9,32,132,28,2,1,281.2,274.24,6.96, 
102,25, F, adult,1,6,32,132,29,2,1,379.9,375.48,4.42, 
102,25, F, adult,1,6,32,132,30,2,1,402.62,399.47,3.15, 
102,25, F, adult,2,3,32,132,31,2,0,447.85,432.76,15.09, 
102,25, F, adult,1,5,32,132,32,2,1,563.76,560.28,3.48, 
102,25, F, adult,1,7,32,132,33,2,1,677.29,674.51,2.78, 
102,25, F, adult,1,6,0,132,34,2,0,0,0,0, 
102,25, F, adult,1,5,32,132,35,2,1,316.68,312.74,3.94, 
102,25, F, adult,1,4,32,132,36,2,1,718.92,716.03,2.89, 
102,25, F, adult,1,2,32,132,37,2,1,569.78,566.8,2.97, 
102,25, F, adult,1,8,32,132,38,2,1,588.45,584.33,4.13, 
102,25, F, adult,1,9,32,132,39,2,1,599.02,596.24,2.79, 
102,25, F, adult,1,7,32,132,40,2,1,461.91,455.04,6.87, 
102,25, F, adult,2,3,0,132,41,2,1,0,0,0, 
102,25, F, adult,1,1,32,132,42,2,1,297.19,293.32,3.87, 
102,25, F, adult,1,5,32,132,43,2,1,349.68,344.97,4.71, 
102,25, F, adult,1,9,32,132,44,2,1,345,339.71,5.29, 
102,25, F, adult,1,2,32,132,45,2,1,280.89,273.91,6.98, 
102,25, F, adult,1,6,32,132,46,2,1,350.34,346.01,4.33, 
102,25, F, adult,2,3,0,132,47,2,1,0,0,0, 
102,25, F, adult,1,9,32,132,48,2,1,308.73,304.6,4.13, 
102,25, F, adult,1,4,32,132,49,2,1,282.79,275.93,6.86, 
102,25, F, adult,1,6,32,132,50,2,1,305.55,298.29,7.26, 
102,25, F, adult,1,8,32,132,51,2,1,363.46,360.51,2.96, 
102,25, F, adult,1,2,32,132,52,2,1,353.28,346.1,7.18, 
102,25, F, adult,1,7,32,132,53,2,1,442.47,438.43,4.04, 
102,25, F, adult,1,8,32,132,54,2,1,374.62,367.68,6.93, 
102,25, F, adult,1,8,32,132,55,2,1,424.59,420.56,4.03, 
102,25, F, adult,2,3,0,132,56,2,1,0,0,0, 
102,25, F, adult,1,7,32,132,57,2,1,439.98,435.22,4.75, 
102,25, F, adult,1,7,32,132,58,2,1,449.59,446.28,3.31, 
102,25, F, adult,1,9,32,132,59,2,1,507.46,503.67,3.79, 
102,25, F, adult,1,7,32,132,60,2,1,616.83,612.77,4.06, 
102,25, F, adult,1,9,32,132,61,2,1,705,698.04,6.96, 
102,25, F, adult,1,7,32,132,62,2,1,453.58,450.91,2.67, 
102,25, F, adult,1,8,32,132,63,2,1,577.83,573.19,4.64, 
102,25, F, adult,2,3,0,132,64,2,1,0,0,0, 
102,25, F, adult,1,1,32,132,65,2,1,287.08,282.94,4.14, 
102,25, F, adult,1,4,32,132,66,2,1,353.32,348.93,4.39, 
102,25, F, adult,1,1,32,132,67,2,1,571.72,568.75,2.97, 
102,25, F, adult,1,5,32,132,68,2,1,415.62,412.7,2.92, 
102,25, F, adult,1,4,32,132,69,2,1,353.62,345.77,7.85, 
102,25, F, adult,1,9,32,132,70,2,1,475.88,473.02,2.86, 
102,25, F, adult,3,111,100,132,71,2,999,4784.67,4781.16,3.51, 
102,25, F, adult,1,4,32,132,72,2,1,718.35,715.29,3.06, 
102,25, F, adult,1,6,32,132,73,2,1,490.15,486.06,4.09, 
102,25, F, adult,3,111,100,132,74,2,999,2052.54,2049.66,2.88, 
102,25, F, adult,1,8,32,132,75,2,1,408.96,404.47,4.49, 
102,25, F, adult,1,8,32,132,76,2,1,523.36,519.8,3.56, 
102,25, F, adult,1,1,0,132,77,2,0,0,0,0, 
102,25, F, adult,1,5,32,132,78,2,1,424.95,421.69,3.26, 
102,25, F, adult,2,3,0,132,79,2,1,0,0,0, 
102,25, F, adult,1,1,32,132,80,2,1,288.97,284.92,4.05, 
102,25, F, adult,1,8,32,132,81,2,1,300.75,293.91,6.83, 
102,25, F, adult,1,8,32,132,82,2,1,332.68,328.49,4.19, 
102,25, F, adult,1,7,32,132,83,2,1,387.44,380.52,6.92, 
102,25, F, adult,1,7,32,132,84,2,1,356,351.95,4.05, 
102,25, F, adult,1,5,32,132,85,2,1,314.82,308.18,6.65, 
102,25, F, adult,2,3,32,132,86,2,0,232.14,228,4.14, 
102,25, F, adult,1,8,32,132,87,2,1,374.97,367.94,7.03, 
102,25, F, adult,1,4,32,132,88,2,1,342.33,338.4,3.93, 
102,25, F, adult,1,5,32,132,89,2,1,361.93,359.08,2.85, 
102,25, F, adult,1,2,32,132,90,2,1,645.34,642.19,3.15, 
102,25, F, adult,1,2,32,132,91,2,1,488.41,484.18,4.23, 
102,25, F, adult,1,9,32,132,92,2,1,554.93,552.23,2.7, 
102,25, F, adult,3,111,100,132,93,2,999,2852.75,2849.66,3.1, 
102,25, F, adult,1,2,32,132,94,2,1,575.35,568.37,6.98, 
102,25, F, adult,1,6,32,132,95,2,1,452.23,448.96,3.27, 
102,25, F, adult,2,3,0,132,96,2,1,0,0,0, 
102,25, F, adult,1,9,32,132,97,2,1,274.48,270.49,4, 
102,25, F, adult,1,9,32,132,98,2,1,349.43,346.04,3.39, 
102,25, F, adult,1,1,32,132,99,2,1,473.38,469.27,4.11, 
102,25, F, adult,1,9,32,132,100,2,1,307.32,302.55,4.77, 
102,25, F, adult,1,1,32,132,101,2,1,563.7,560.62,3.08, 
102,25, F, adult,1,6,32,132,102,2,1,775.53,772.55,2.98, 
102,25, F, adult,1,4,32,132,103,2,1,746.66,743.69,2.96, 
102,25, F, adult,1,7,32,132,104,2,1,626.09,619.32,6.76, 
102,25, F, adult,1,1,32,132,105,2,1,821.08,816.67,4.41, 
102,25, F, adult,1,5,32,132,106,2,1,524.62,520,4.63, 
102,25, F, adult,1,1,32,132,107,2,1,445.99,443.38,2.62, 
102,25, F, adult,1,2,32,132,108,2,1,578.8,576.09,2.71, 
102,25, F, adult,2,3,0,132,109,2,1,0,0,0, 
102,25, F, adult,1,9,32,132,110,2,1,274.68,270.89,3.8, 
102,25, F, adult,1,5,32,132,111,2,1,369.83,362.78,7.05, 
102,25, F, adult,1,1,32,132,112,2,1,369.04,364.77,4.28, 
102,25, F, adult,1,2,32,132,113,2,1,549.35,544.53,4.81, 
102,25, F, adult,1,1,32,132,114,2,1,507.77,504.84,2.92, 
102,25, F, adult,2,3,32,132,115,2,0,322.14,315.28,6.86, 
102,25, F, adult,1,5,32,132,116,2,1,492.03,488.01,4.02, 
102,25, F, adult,1,6,32,132,117,2,1,394.07,387,7.08, 
102,25, F, adult,1,8,32,132,118,2,1,495.6,492.84,2.76, 
102,25, F, adult,1,6,32,132,119,2,1,819.64,815.48,4.16, 
102,25, F, adult,1,4,32,132,120,2,1,767.58,764.74,2.84, 
102,25, F, adult,3,111,100,132,121,2,999,8713.6,8710.84,2.76, 
102,25, F, adult,1,2,32,132,122,2,1,627.37,623.34,4.03, 
102,25, F, adult,1,5,32,132,123,2,1,367.39,363.2,4.19, 
102,25, F, adult,1,6,32,132,124,2,1,448.8,439.5,9.3, 
102,25, F, adult,2,3,0,132,125,2,1,0,0,0, 
102,25, F, adult,1,2,32,132,126,2,1,264.16,257.15,7.01, 
102,25, F, adult,1,4,32,132,127,2,1,676.58,672.63,3.96, 
102,25, F, adult,1,5,32,132,128,2,1,444.84,441.68,3.16, 
102,25, F, adult,1,8,32,132,129,2,1,402.33,398.13,4.21, 
102,25, F, adult,2,3,32,132,130,2,0,397.44,394.53,2.9, 
102,25, F, adult,1,2,32,132,131,2,1,438.99,429.51,9.48, 
103,12, F, ea,1,2,32,132,1,1,1,1158.74,1154.88,3.87, 
103,12, F, ea,1,8,32,132,2,1,1,416.31,412.67,3.64, 
103,12, F, ea,1,7,32,132,3,1,1,392.51,388.82,3.69, 
103,12, F, ea,1,2,32,132,4,1,1,380.25,376.85,3.4, 
103,12, F, ea,1,7,32,132,5,1,1,386.97,383.5,3.48, 
103,12, F, ea,1,6,32,132,6,1,1,396.65,393.06,3.59, 
103,12, F, ea,1,9,32,132,7,1,1,373.75,370.08,3.67, 
103,12, F, ea,2,3,32,132,8,1,0,332.79,329.03,3.75, 
103,12, F, ea,1,4,32,132,9,1,1,8.97,0.66,8.31, 
103,12, F, ea,1,1,32,132,10,1,1,748.87,744.4,4.47, 
103,12, F, ea,1,8,32,132,11,1,1,557.57,554.04,3.53, 
103,12, F, ea,1,9,32,132,12,1,1,366.58,363.05,3.54, 
103,12, F, ea,1,2,32,132,13,1,1,392.68,389.14,3.54, 
103,12, F, ea,1,2,32,132,14,1,1,536.76,532.79,3.97, 
103,12, F, ea,1,6,32,132,15,1,1,481.87,477.74,4.14, 
103,12, F, ea,1,6,32,132,16,1,1,391.12,387.69,3.43, 
103,12, F, ea,1,7,32,132,17,1,1,431.27,427.65,3.62, 
103,12, F, ea,1,9,32,132,18,1,1,358.48,354.86,3.63, 
103,12, F, ea,1,1,32,132,19,1,1,543.26,539.6,3.66, 
103,12, F, ea,1,6,32,132,20,1,1,435.32,431.53,3.8, 
103,12, F, ea,3,111,97,132,21,1,999,5574.28,5570.75,3.54, 
103,12, F, ea,1,8,32,132,22,1,1,555.81,552.43,3.37, 
103,12, F, ea,1,2,32,132,23,1,1,432.38,428.57,3.81, 
103,12, F, ea,2,3,32,132,24,1,0,510.21,506.74,3.48, 
103,12, F, ea,1,2,32,132,25,1,1,8.96,0.69,8.27, 
103,12, F, ea,1,4,32,132,26,1,1,536.46,527.24,9.22, 
103,12, F, ea,1,4,32,132,27,1,1,457.78,454.22,3.57, 
103,12, F, ea,1,2,32,132,28,1,1,535.36,531.49,3.87, 
103,12, F, ea,1,7,32,132,29,1,1,443.8,440.25,3.56, 
103,12, F, ea,1,4,32,132,30,1,1,470.6,467.06,3.54, 
103,12, F, ea,2,3,0,132,31,1,1,0,0,0, 
103,12, F, ea,1,5,32,132,32,1,1,362.7,359.06,3.65, 
103,12, F, ea,1,7,32,132,33,1,1,338.53,334.91,3.62, 
103,12, F, ea,1,8,32,132,34,1,1,379.19,375.61,3.58, 
103,12, F, ea,3,111,97,132,35,1,999,1580.74,1577.05,3.69, 
103,12, F, ea,1,7,32,132,36,1,1,449.43,445.74,3.69, 
103,12, F, ea,1,9,32,132,37,1,1,459.11,455.69,3.42, 
103,12, F, ea,2,3,32,132,38,1,0,396.13,392.57,3.56, 
103,12, F, ea,1,2,32,132,39,1,1,317.83,313.88,3.95, 
103,12, F, ea,1,6,32,132,40,1,1,302.46,298.93,3.53, 
103,12, F, ea,1,5,32,132,41,1,1,305.78,302.45,3.33, 
103,12, F, ea,2,3,32,132,42,1,0,312.05,308.61,3.43, 
103,12, F, ea,1,4,32,132,43,1,1,5.83,0.52,5.32, 
103,12, F, ea,1,9,32,132,44,1,1,460.21,456.63,3.58, 
103,12, F, ea,1,1,32,132,45,1,1,343.85,340.4,3.44, 
103,12, F, ea,2,3,0,132,46,1,1,0,0,0, 
103,12, F, ea,1,1,32,132,47,1,1,377.68,374.23,3.45, 
103,12, F, ea,1,8,32,132,48,1,1,361.93,358.36,3.57, 
103,12, F, ea,1,8,32,132,49,1,1,371.49,367.82,3.67, 
103,12, F, ea,2,3,0,132,50,1,1,0,0,0, 
103,12, F, ea,1,1,32,132,51,1,1,565.74,562.26,3.48, 
103,12, F, ea,1,7,32,132,52,1,1,545.18,541.66,3.52, 
103,12, F, ea,1,4,32,132,53,1,1,810.92,807.6,3.32, 
103,12, F, ea,1,6,32,132,54,1,1,676.43,672.97,3.46, 
103,12, F, ea,1,5,32,132,55,1,1,628.66,624.43,4.23, 
103,12, F, ea,1,5,32,132,56,1,1,956.29,952.6,3.69, 
103,12, F, ea,1,4,32,132,57,1,1,918.75,914.81,3.95, 
103,12, F, ea,2,3,0,132,58,1,1,0,0,0, 
103,12, F, ea,1,4,32,132,59,1,1,513.38,509.9,3.48, 
103,12, F, ea,1,7,32,132,60,1,1,642.93,639.28,3.65, 
103,12, F, ea,1,5,32,132,61,1,1,329.91,326.4,3.5, 
103,12, F, ea,1,1,32,132,62,1,1,374.53,371.06,3.47, 
103,12, F, ea,1,6,32,132,63,1,1,535.16,531.39,3.78, 
103,12, F, ea,1,6,32,132,64,1,1,682.26,678.87,3.39, 
103,12, F, ea,2,3,32,132,65,1,0,643.4,639.84,3.56, 
103,12, F, ea,1,6,32,132,66,1,1,676.67,673.25,3.42, 
103,12, F, ea,1,9,32,132,67,1,1,709.16,705.54,3.62, 
103,12, F, ea,1,8,32,132,68,1,1,582.17,578.59,3.58, 
103,12, F, ea,1,7,32,132,69,1,1,642.06,638.44,3.62, 
103,12, F, ea,1,2,32,132,70,1,1,1105.54,1102.1,3.45, 
103,12, F, ea,1,5,32,132,71,1,1,779.21,775.68,3.54, 
103,12, F, ea,1,5,32,132,72,1,1,515.78,512.21,3.57, 
103,12, F, ea,1,7,32,132,73,1,1,367.21,363.79,3.42, 
103,12, F, ea,1,7,32,132,74,1,1,544.81,541.4,3.42, 
103,12, F, ea,1,5,32,132,75,1,1,727.67,724.28,3.39, 
103,12, F, ea,1,4,32,132,76,1,1,742.55,732.73,9.82, 
103,12, F, ea,1,1,32,132,77,1,1,506.85,503.35,3.5, 
103,12, F, ea,1,8,32,132,78,1,1,475,471.55,3.45, 
103,12, F, ea,1,9,32,132,79,1,1,633.01,626.51,6.5, 
103,12, F, ea,2,3,0,132,80,1,1,0,0,0, 
103,12, F, ea,1,6,32,132,81,1,1,345.59,342.02,3.58, 
103,12, F, ea,1,1,32,132,82,1,1,393.69,390.18,3.5, 
103,12, F, ea,1,1,32,132,83,1,1,339.52,335.94,3.58, 
103,12, F, ea,1,2,32,132,84,1,1,541.96,538.42,3.53, 
103,12, F, ea,1,6,32,132,85,1,1,503.3,499.93,3.38, 
103,12, F, ea,1,4,32,132,86,1,1,481.44,478.04,3.4, 
103,12, F, ea,1,2,32,132,87,1,1,430.91,427.43,3.48, 
103,12, F, ea,1,7,32,132,88,1,1,449.39,445.82,3.57, 
103,12, F, ea,1,7,32,132,89,1,1,554.63,551.16,3.48, 
103,12, F, ea,2,3,0,132,90,1,1,0,0,0, 
103,12, F, ea,1,8,32,132,91,1,1,319.44,315.4,4.05, 
103,12, F, ea,1,8,32,132,92,1,1,761.3,757.95,3.36, 
103,12, F, ea,1,4,32,132,93,1,1,577.15,573.73,3.42, 
103,12, F, ea,1,9,32,132,94,1,1,469.09,465.56,3.53, 
103,12, F, ea,3,111,97,132,95,1,999,10215.04,10211.79,3.24, 
103,12, F, ea,1,1,32,132,96,1,1,501.63,498.13,3.5, 
103,12, F, ea,1,8,32,132,97,1,1,535.84,532.15,3.68, 
103,12, F, ea,1,5,32,132,98,1,1,533.84,526.2,7.64, 
103,12, F, ea,1,8,32,132,99,1,1,753.09,749.52,3.56, 
103,12, F, ea,1,9,32,132,100,1,1,666.51,662.94,3.56, 
103,12, F, ea,3,111,97,132,101,1,999,1886.05,1882.59,3.46, 
103,12, F, ea,1,8,32,132,102,1,1,537.98,534.49,3.49, 
103,12, F, ea,1,4,32,132,103,1,1,384.61,381.21,3.41, 
103,12, F, ea,2,3,0,132,104,1,1,0,0,0, 
103,12, F, ea,1,9,32,132,105,1,1,410.48,406.76,3.72, 
103,12, F, ea,1,7,32,132,106,1,1,276.62,273.17,3.46, 
103,12, F, ea,1,6,32,132,107,1,1,461.32,457.65,3.68, 
103,12, F, ea,2,3,32,132,108,1,0,312.44,308.38,4.06, 
103,12, F, ea,1,9,32,132,109,1,1,638.79,635.26,3.52, 
103,12, F, ea,1,5,32,132,110,1,1,385.87,382.27,3.61, 
103,12, F, ea,1,2,32,132,111,1,1,736.83,729.09,7.74, 
103,12, F, ea,1,9,32,132,112,1,1,716.35,712.81,3.54, 
103,12, F, ea,1,5,32,132,113,1,1,637.04,632.95,4.09, 
103,12, F, ea,1,1,32,132,114,1,1,752.05,748.33,3.71, 
103,12, F, ea,2,3,0,132,115,1,1,0,0,0, 
103,12, F, ea,1,9,32,132,116,1,1,508.01,504.6,3.41, 
103,12, F, ea,1,2,32,132,117,1,1,402.45,398.98,3.47, 
103,12, F, ea,1,2,32,132,118,1,1,405.98,402.5,3.48, 
103,12, F, ea,1,5,32,132,119,1,1,435.19,431.4,3.8, 
103,12, F, ea,1,1,32,132,120,1,1,433.74,430,3.74, 
103,12, F, ea,1,5,32,132,121,1,1,529.98,526.46,3.52, 
103,12, F, ea,1,1,32,132,122,1,1,737.21,728.77,8.44, 
103,12, F, ea,1,6,32,132,123,1,1,538.04,534.28,3.76, 
103,12, F, ea,1,4,32,132,124,1,1,1006.72,1003.33,3.39, 
103,12, F, ea,1,9,32,132,125,1,1,726.91,723.04,3.88, 
103,12, F, ea,1,5,32,132,126,1,1,392.37,388.83,3.54, 
103,12, F, ea,1,1,32,132,127,1,1,474.09,470.76,3.33, 
103,12, F, ea,1,8,32,132,128,1,1,490.86,487.39,3.47, 
103,12, F, ea,1,6,32,132,129,1,1,541.65,537.99,3.66, 
103,12, F, ea,3,111,97,132,130,1,999,5957.58,5954.17,3.41, 
103,12, F, ea,1,4,32,132,131,1,1,638.92,635.18,3.74, 
103,12, F, ea,1,8,32,132,1,2,1,4.55,0.39,4.16, 
103,12, F, ea,1,8,32,132,2,2,1,430.49,426.86,3.63, 
103,12, F, ea,1,1,32,132,3,2,1,573.36,569.96,3.41, 
103,12, F, ea,1,9,32,132,4,2,1,330.48,326.96,3.53, 
103,12, F, ea,1,9,32,132,5,2,1,537.76,534.26,3.5, 
103,12, F, ea,1,6,32,132,6,2,1,476.77,473.44,3.33, 
103,12, F, ea,3,111,97,132,7,2,999,2325.57,2322.24,3.32, 
103,12, F, ea,1,9,32,132,8,2,1,564.9,561.33,3.57, 
103,12, F, ea,1,6,32,132,9,2,1,551.83,548.37,3.46, 
103,12, F, ea,1,7,32,132,10,2,1,719.52,715.95,3.58, 
103,12, F, ea,1,7,32,132,11,2,1,940.78,937.24,3.54, 
103,12, F, ea,1,6,32,132,12,2,1,370.78,367.42,3.36, 
103,12, F, ea,1,2,32,132,13,2,1,427.04,417.92,9.12, 
103,12, F, ea,1,6,32,132,14,2,1,397.77,394.53,3.25, 
103,12, F, ea,2,3,0,132,15,2,1,0,0,0, 
103,12, F, ea,1,4,32,132,16,2,1,338.39,334.81,3.58, 
103,12, F, ea,1,5,32,132,17,2,1,403.04,399.54,3.49, 
103,12, F, ea,1,2,32,132,18,2,1,453.55,450.1,3.44, 
103,12, F, ea,1,9,32,132,19,2,1,524,520.03,3.98, 
103,12, F, ea,1,8,32,132,20,2,1,356.92,353.39,3.54, 
103,12, F, ea,1,7,32,132,21,2,1,518.82,515.24,3.58, 
103,12, F, ea,1,9,32,132,22,2,1,409.72,406.37,3.35, 
103,12, F, ea,1,7,32,132,23,2,1,515.86,512.57,3.29, 
103,12, F, ea,2,3,0,132,24,2,1,0,0,0, 
103,12, F, ea,1,1,32,132,25,2,1,605.76,602.26,3.5, 
103,12, F, ea,1,7,32,132,26,2,1,535.62,531.83,3.79, 
103,12, F, ea,1,9,32,132,27,2,1,461.35,457.7,3.65, 
103,12, F, ea,1,1,32,132,28,2,1,520.3,516.15,4.15, 
103,12, F, ea,1,5,32,132,29,2,1,273.68,269.54,4.15, 
103,12, F, ea,1,2,32,132,30,2,1,598.47,595.19,3.28, 
103,12, F, ea,3,111,97,132,31,2,999,1605.13,1601.55,3.57, 
103,12, F, ea,1,4,32,132,32,2,1,353.31,349.7,3.61, 
103,12, F, ea,1,6,32,132,33,2,1,8.96,0.68,8.28, 
103,12, F, ea,2,3,0,132,34,2,1,0,0,0, 
103,12, F, ea,1,9,32,132,35,2,1,438.57,434.93,3.64, 
103,12, F, ea,1,2,32,132,36,2,1,518.42,514.89,3.53, 
103,12, F, ea,1,1,32,132,37,2,1,672.06,668.63,3.44, 
103,12, F, ea,1,4,32,132,38,2,1,874.55,871.2,3.34, 
103,12, F, ea,1,1,32,132,39,2,1,763.27,759.75,3.52, 
103,12, F, ea,1,2,32,132,40,2,1,798.09,794.68,3.41, 
103,12, F, ea,1,6,32,132,41,2,1,1005.67,1002.12,3.56, 
103,12, F, ea,1,4,32,132,42,2,1,767.39,763.83,3.56, 
103,12, F, ea,1,4,32,132,43,2,1,843.28,835.73,7.55, 
103,12, F, ea,1,7,32,132,44,2,1,1049.29,1045.24,4.05, 
103,12, F, ea,1,6,0,132,45,2,0,0,0,0, 
103,12, F, ea,1,8,32,132,46,2,1,716.62,713.16,3.47, 
103,12, F, ea,1,9,32,132,47,2,1,296.31,292.93,3.37, 
103,12, F, ea,1,4,32,132,48,2,1,664.65,661.12,3.53, 
103,12, F, ea,1,5,32,132,49,2,1,787.05,782.6,4.46, 
103,12, F, ea,1,7,32,132,50,2,1,906.77,903.23,3.53, 
103,12, F, ea,3,111,97,132,51,2,999,1699.69,1696.13,3.55, 
103,12, F, ea,1,4,32,132,52,2,1,652.04,648.41,3.63, 
103,12, F, ea,1,5,32,132,53,2,1,495.25,491.91,3.34, 
103,12, F, ea,1,6,32,132,54,2,1,526.64,522.97,3.68, 
103,12, F, ea,2,3,32,132,55,2,0,543.31,539.79,3.52, 
103,12, F, ea,1,8,32,132,56,2,1,437.9,430.27,7.63, 
103,12, F, ea,1,6,32,132,57,2,1,435.24,431.45,3.79, 
103,12, F, ea,1,5,32,132,58,2,1,460.94,457.28,3.66, 
103,12, F, ea,2,3,0,132,59,2,1,0,0,0, 
103,12, F, ea,1,6,32,132,60,2,1,511.3,507.87,3.43, 
103,12, F, ea,1,8,32,132,61,2,1,455.46,451.9,3.56, 
103,12, F, ea,1,4,32,132,62,2,1,650.12,646.41,3.71, 
103,12, F, ea,1,5,32,132,63,2,1,643.62,640.08,3.54, 
103,12, F, ea,1,7,32,132,64,2,1,670.19,666.78,3.41, 
103,12, F, ea,1,6,32,132,65,2,1,693.52,689.96,3.56, 
103,12, F, ea,1,2,32,132,66,2,1,759.8,756.35,3.45, 
103,12, F, ea,1,1,32,132,67,2,1,584.02,580.57,3.45, 
103,12, F, ea,1,1,32,132,68,2,1,467.98,464.44,3.54, 
103,12, F, ea,1,5,32,132,69,2,1,454.59,451.09,3.5, 
103,12, F, ea,2,3,0,132,70,2,1,0,0,0, 
103,12, F, ea,1,4,32,132,71,2,1,640.33,632.04,8.29, 
103,12, F, ea,1,1,32,132,72,2,1,576.21,572.64,3.57, 
103,12, F, ea,1,9,32,132,73,2,1,666.91,663.43,3.48, 
103,12, F, ea,1,4,32,132,74,2,1,684.06,680.47,3.59, 
103,12, F, ea,1,2,32,132,75,2,1,743.2,739.63,3.57, 
103,12, F, ea,2,3,0,132,76,2,1,0,0,0, 
103,12, F, ea,1,6,32,132,77,2,1,415.29,411.77,3.52, 
103,12, F, ea,1,9,32,132,78,2,1,456.83,453.31,3.52, 
103,12, F, ea,1,5,32,132,79,2,1,595.14,591.64,3.5, 
103,12, F, ea,1,8,32,132,80,2,1,646.11,642.5,3.61, 
103,12, F, ea,1,5,32,132,81,2,1,692.67,689.29,3.38, 
103,12, F, ea,1,7,32,132,82,2,1,670.89,667.3,3.59, 
103,12, F, ea,1,4,32,132,83,2,1,449.89,446.35,3.54, 
103,12, F, ea,2,3,0,132,84,2,1,0,0,0, 
103,12, F, ea,1,8,32,132,85,2,1,497.69,494.41,3.29, 
103,12, F, ea,1,4,32,132,86,2,1,339.34,335.72,3.62, 
103,12, F, ea,1,8,32,132,87,2,1,469.21,465.8,3.41, 
103,12, F, ea,2,3,0,132,88,2,1,0,0,0, 
103,12, F, ea,1,5,32,132,89,2,1,533.34,529.7,3.64, 
103,12, F, ea,1,8,32,132,90,2,1,529.71,520.25,9.46, 
103,12, F, ea,1,2,32,132,91,2,1,626.65,622.64,4.01, 
103,12, F, ea,1,1,32,132,92,2,1,949.07,945.25,3.82, 
103,12, F, ea,1,2,32,132,93,2,1,766.68,763.13,3.55, 
103,12, F, ea,2,3,0,132,94,2,1,0,0,0, 
103,12, F, ea,1,2,32,132,95,2,1,825.95,822.45,3.5, 
103,12, F, ea,1,1,32,132,96,2,1,851.88,848.25,3.64, 
103,12, F, ea,1,5,32,132,97,2,1,861.41,857.99,3.42, 
103,12, F, ea,2,3,0,132,98,2,1,0,0,0, 
103,12, F, ea,1,9,32,132,99,2,1,504.15,500.84,3.31, 
103,12, F, ea,1,4,32,132,100,2,1,496.86,493.38,3.48, 
103,12, F, ea,1,2,32,132,101,2,1,385.08,381.65,3.43, 
103,12, F, ea,2,3,0,132,102,2,1,0,0,0, 
103,12, F, ea,1,5,32,132,103,2,1,405.41,401.9,3.5, 
103,12, F, ea,1,7,32,132,104,2,1,447.43,444.1,3.33, 
103,12, F, ea,1,7,32,132,105,2,1,512.51,509,3.51, 
103,12, F, ea,2,3,0,132,106,2,1,0,0,0, 
103,12, F, ea,1,4,32,132,107,2,1,639.97,636.49,3.48, 
103,12, F, ea,1,2,32,132,108,2,1,618.37,614.97,3.4, 
103,12, F, ea,1,6,32,132,109,2,1,536.7,529.74,6.96, 
103,12, F, ea,1,1,32,132,110,2,1,650.57,646.64,3.92, 
103,12, F, ea,1,9,32,132,111,2,1,751.89,748.24,3.66, 
103,12, F, ea,1,9,32,132,112,2,1,690.8,687.39,3.41, 
103,12, F, ea,1,7,32,132,113,2,1,697.37,693.95,3.42, 
103,12, F, ea,1,1,32,132,114,2,1,630.51,626.97,3.54, 
103,12, F, ea,3,111,100,132,115,2,999,10405.23,10401.51,3.72, 
103,12, F, ea,1,2,32,132,116,2,1,649.58,645.95,3.63, 
103,12, F, ea,1,8,32,132,117,2,1,818.29,814.87,3.43, 
103,12, F, ea,1,7,32,132,118,2,1,835.53,831.33,4.2, 
103,12, F, ea,1,9,32,132,119,2,1,618.53,614.82,3.7, 
103,12, F, ea,1,6,32,132,120,2,1,572.25,568.68,3.57, 
103,12, F, ea,2,3,0,132,121,2,1,0,0,0, 
103,12, F, ea,1,1,32,132,122,2,1,568.07,564.46,3.61, 
103,12, F, ea,1,2,32,132,123,2,1,811.17,807.86,3.32, 
103,12, F, ea,1,5,32,132,124,2,1,965.08,961.53,3.55, 
103,12, F, ea,1,7,32,132,125,2,1,549.01,545.37,3.64, 
103,12, F, ea,1,8,32,132,126,2,1,567.09,563.71,3.38, 
103,12, F, ea,1,5,32,132,127,2,1,544.8,541.37,3.43, 
103,12, F, ea,1,8,32,132,128,2,1,576.64,573.15,3.49, 
103,12, F, ea,1,8,32,132,129,2,1,557.82,550.54,7.27, 
103,12, F, ea,3,111,97,132,130,2,999,2186.12,2182.49,3.63, 
103,12, F, ea,1,1,32,132,131,2,1,403.31,399.87,3.44, 
104,25, F, adult,1,4,32,132,1,1,1,583.82,580.19,3.64, 
104,25, F, adult,1,7,32,132,2,1,1,354.28,351.46,2.82, 
104,25, F, adult,1,8,32,132,3,1,1,334.2,330.98,3.22, 
104,25, F, adult,3,111,98,132,4,1,999,2318.67,2316.23,2.44, 
104,25, F, adult,1,4,32,132,5,1,1,368,364.75,3.24, 
104,25, F, adult,1,8,32,132,6,1,1,347.06,344.21,2.85, 
104,25, F, adult,1,6,32,132,7,1,1,301.96,299.11,2.85, 
104,25, F, adult,1,1,32,132,8,1,1,321.54,317.36,4.19, 
104,25, F, adult,1,5,32,132,9,1,1,239.47,235.2,4.27, 
104,25, F, adult,1,8,32,132,10,1,1,246.79,244.12,2.66, 
104,25, F, adult,2,3,32,132,11,1,0,257.78,253.33,4.45, 
104,25, F, adult,1,2,32,132,12,1,1,301.36,298.4,2.96, 
104,25, F, adult,1,6,32,132,13,1,1,480.32,477.51,2.81, 
104,25, F, adult,1,1,32,132,14,1,1,288.06,281.52,6.54, 
104,25, F, adult,2,3,0,132,15,1,1,0,0,0, 
104,25, F, adult,1,2,32,132,16,1,1,280.89,277.5,3.39, 
104,25, F, adult,1,9,32,132,17,1,1,252.81,250.04,2.77, 
104,25, F, adult,1,6,32,132,18,1,1,277.84,274.83,3.01, 
104,25, F, adult,1,9,32,132,19,1,1,259.05,254.93,4.12, 
104,25, F, adult,1,8,32,132,20,1,1,278.65,275.69,2.96, 
104,25, F, adult,1,4,32,132,21,1,1,312.64,309.56,3.07, 
104,25, F, adult,2,3,32,132,22,1,0,250.41,247.1,3.31, 
104,25, F, adult,1,2,32,132,23,1,1,399.05,395.98,3.07, 
104,25, F, adult,1,4,32,132,24,1,1,328.03,320.22,7.81, 
104,25, F, adult,1,2,32,132,25,1,1,245.6,241.34,4.26, 
104,25, F, adult,1,9,32,132,26,1,1,310.73,307.73,3, 
104,25, F, adult,2,3,0,132,27,1,1,0,0,0, 
104,25, F, adult,1,8,32,132,28,1,1,231.33,227.2,4.13, 
104,25, F, adult,1,1,32,132,29,1,1,340.59,336.48,4.11, 
104,25, F, adult,1,1,32,132,30,1,1,259.57,255.46,4.11, 
104,25, F, adult,1,6,32,132,31,1,1,342.25,326.4,15.85, 
104,25, F, adult,1,9,32,132,32,1,1,292.34,288.48,3.85, 
104,25, F, adult,1,1,32,132,33,1,1,315.2,312.39,2.82, 
104,25, F, adult,3,111,97,132,34,1,999,6646.64,6643.86,2.78, 
104,25, F, adult,1,1,32,132,35,1,1,445.88,442.25,3.63, 
104,25, F, adult,1,4,32,132,36,1,1,452.78,450.32,2.46, 
104,25, F, adult,3,111,97,132,37,1,999,1898.26,1895.27,2.98, 
104,25, F, adult,1,1,32,132,38,1,1,409.42,406.63,2.79, 
104,25, F, adult,1,6,32,132,39,1,1,444.32,441.46,2.85, 
104,25, F, adult,1,8,32,132,40,1,1,295.66,292.64,3.02, 
104,25, F, adult,1,6,32,132,41,1,1,323.7,319.03,4.67, 
104,25, F, adult,1,6,32,132,42,1,1,282.71,275.59,7.12, 
104,25, F, adult,2,3,32,132,43,1,0,239.55,224.98,14.58, 
104,25, F, adult,1,7,32,132,44,1,1,325.22,320.82,4.4, 
104,25, F, adult,1,2,32,132,45,1,1,250.33,242.86,7.48, 
104,25, F, adult,1,2,32,132,46,1,1,290.32,287.65,2.67, 
104,25, F, adult,1,8,32,132,47,1,1,297.36,293.24,4.12, 
104,25, F, adult,1,8,32,132,48,1,1,332.12,326.27,5.86, 
104,25, F, adult,1,2,32,132,49,1,1,352.45,344.29,8.16, 
104,25, F, adult,1,7,32,132,50,1,1,375.19,372.43,2.76, 
104,25, F, adult,2,3,0,132,51,1,1,0,0,0, 
104,25, F, adult,1,5,32,132,52,1,1,310.44,306.63,3.81, 
104,25, F, adult,1,8,32,132,53,1,1,356.51,349.35,7.16, 
104,25, F, adult,1,7,32,132,54,1,1,302.18,298.05,4.13, 
104,25, F, adult,1,8,32,132,55,1,1,360.24,357.57,2.67, 
104,25, F, adult,1,1,32,132,56,1,1,381.65,374.83,6.83, 
104,25, F, adult,1,5,32,132,57,1,1,374.47,370.94,3.53, 
104,25, F, adult,1,4,32,132,58,1,1,367.18,364.38,2.79, 
104,25, F, adult,2,3,0,132,59,1,1,0,0,0, 
104,25, F, adult,1,7,32,132,60,1,1,303.82,296.65,7.16, 
104,25, F, adult,1,7,32,132,61,1,1,441.43,438.53,2.9, 
104,25, F, adult,1,7,32,132,62,1,1,313.19,310.44,2.75, 
104,25, F, adult,1,6,32,132,63,1,1,286.07,283.54,2.53, 
104,25, F, adult,2,3,32,132,64,1,0,337.29,334.18,3.11, 
104,25, F, adult,1,1,32,132,65,1,1,355.25,351.46,3.79, 
104,25, F, adult,1,9,32,132,66,1,1,344.23,338.51,5.72, 
104,25, F, adult,1,7,32,132,67,1,1,340.8,325.48,15.31, 
104,25, F, adult,1,6,32,132,68,1,1,273.64,265.34,8.29, 
104,25, F, adult,1,5,32,132,69,1,1,270.47,263.36,7.11, 
104,25, F, adult,1,5,32,132,70,1,1,555.64,552.62,3.02, 
104,25, F, adult,1,2,32,132,71,1,1,286.61,283.7,2.91, 
104,25, F, adult,1,6,32,132,72,1,1,321.14,313.42,7.72, 
104,25, F, adult,1,2,32,132,73,1,1,293.32,286.35,6.97, 
104,25, F, adult,1,5,32,132,74,1,1,361.3,357.19,4.1, 
104,25, F, adult,1,4,32,132,75,1,1,555.07,552.17,2.89, 
104,25, F, adult,1,1,32,132,76,1,1,397.65,394.71,2.94, 
104,25, F, adult,2,3,0,132,77,1,1,0,0,0, 
104,25, F, adult,1,9,32,132,78,1,1,314.35,311.03,3.32, 
104,25, F, adult,1,4,32,132,79,1,1,341.53,338.7,2.83, 
104,25, F, adult,1,5,32,132,80,1,1,273.23,270.5,2.73, 
104,25, F, adult,2,3,0,132,81,1,1,0,0,0, 
104,25, F, adult,1,7,32,132,82,1,1,311.12,308.31,2.8, 
104,25, F, adult,1,9,32,132,83,1,1,335.45,328.7,6.75, 
104,25, F, adult,1,4,32,132,84,1,1,318.56,315.4,3.16, 
104,25, F, adult,1,7,32,132,85,1,1,266.59,262.28,4.31, 
104,25, F, adult,1,6,32,132,86,1,1,315.15,312.43,2.73, 
104,25, F, adult,1,8,32,132,87,1,1,240.07,237.26,2.8, 
104,25, F, adult,1,9,0,132,88,1,0,0,0,0, 
104,25, F, adult,1,5,32,132,89,1,1,388.49,385.53,2.96, 
104,25, F, adult,1,2,32,132,90,1,1,348.01,341.28,6.73, 
104,25, F, adult,1,6,32,132,91,1,1,334.55,331.55,3, 
104,25, F, adult,1,7,32,132,92,1,1,310.51,307.49,3.02, 
104,25, F, adult,1,5,32,132,93,1,1,267.28,262.97,4.31, 
104,25, F, adult,1,9,32,132,94,1,1,317.49,310.65,6.84, 
104,25, F, adult,1,5,32,132,95,1,1,275.04,270.78,4.26, 
104,25, F, adult,2,3,0,132,96,1,1,0,0,0, 
104,25, F, adult,1,2,32,132,97,1,1,232.29,218.48,13.81, 
104,25, F, adult,1,7,32,132,98,1,1,311.79,307.7,4.09, 
104,25, F, adult,1,9,32,132,99,1,1,27.91,15.09,12.82, 
104,25, F, adult,3,111,99,132,100,1,999,1956.86,1953.81,3.05, 
104,25, F, adult,1,7,32,132,101,1,1,308.63,305.8,2.84, 
104,25, F, adult,1,1,32,132,102,1,1,240.23,232.85,7.38, 
104,25, F, adult,1,6,32,132,103,1,1,236.69,228.48,8.2, 
104,25, F, adult,2,3,32,132,104,1,0,263.11,260.17,2.94, 
104,25, F, adult,1,8,32,132,105,1,1,305.22,302.08,3.14, 
104,25, F, adult,1,6,32,132,106,1,1,308.15,301.19,6.96, 
104,25, F, adult,1,8,32,132,107,1,1,303.89,300.76,3.13, 
104,25, F, adult,1,4,32,132,108,1,1,258.39,255.62,2.77, 
104,25, F, adult,1,5,32,132,109,1,1,14.12,0.83,13.29, 
104,25, F, adult,1,1,32,132,110,1,1,246.93,239.94,6.99, 
104,25, F, adult,1,4,32,132,111,1,1,264.62,257.59,7.03, 
104,25, F, adult,2,3,0,132,112,1,1,0,0,0, 
104,25, F, adult,1,9,32,132,113,1,1,329.1,326.27,2.83, 
104,25, F, adult,1,4,32,132,114,1,1,390.77,386.94,3.83, 
104,25, F, adult,1,7,32,132,115,1,1,288.32,285.28,3.05, 
104,25, F, adult,1,1,32,132,116,1,1,233.59,223.03,10.56, 
104,25, F, adult,1,1,32,132,117,1,1,329.17,322.8,6.37, 
104,25, F, adult,1,5,32,132,118,1,1,281,278.21,2.79, 
104,25, F, adult,1,5,32,132,119,1,1,315.68,312.19,3.49, 
104,25, F, adult,1,4,32,132,120,1,1,318.19,314.84,3.35, 
104,25, F, adult,1,2,32,132,121,1,1,355.86,351.83,4.03, 
104,25, F, adult,3,111,98,132,122,1,999,1139.26,1136.34,2.92, 
104,25, F, adult,1,8,32,132,123,1,1,431.85,425.01,6.84, 
104,25, F, adult,1,9,32,132,124,1,1,270.23,265.83,4.39, 
104,25, F, adult,1,4,32,132,125,1,1,936.18,933.01,3.17, 
104,25, F, adult,1,5,32,132,126,1,1,542.23,539.01,3.22, 
104,25, F, adult,1,9,32,132,127,1,1,278.19,271.22,6.97, 
104,25, F, adult,1,2,32,132,128,1,1,268.03,263.95,4.08, 
104,25, F, adult,1,9,32,132,129,1,1,341.33,334.75,6.58, 
104,25, F, adult,2,3,0,132,130,1,1,0,0,0, 
104,25, F, adult,1,2,32,132,131,1,1,362.86,359.01,3.85, 
104,25, F, adult,1,4,32,132,1,2,1,4.13,0.25,3.88, 
104,25, F, adult,1,4,32,132,2,2,1,404.31,401.42,2.9, 
104,25, F, adult,1,8,32,132,3,2,1,292.81,285.75,7.06, 
104,25, F, adult,1,7,32,132,4,2,1,277.15,271.79,5.36, 
104,25, F, adult,2,3,32,132,5,2,0,301.27,297.06,4.21, 
104,25, F, adult,1,5,32,132,6,2,1,292.17,288.22,3.95, 
104,25, F, adult,1,8,32,132,7,2,1,277.83,270.95,6.88, 
104,25, F, adult,1,9,32,132,8,2,1,336.02,333.13,2.89, 
104,25, F, adult,1,9,32,132,9,2,1,299.31,296.27,3.04, 
104,25, F, adult,1,2,32,132,10,2,1,375.29,371.34,3.95, 
104,25, F, adult,2,3,0,132,11,2,1,0,0,0, 
104,25, F, adult,1,5,32,132,12,2,1,281.85,279.07,2.78, 
104,25, F, adult,1,1,32,132,13,2,1,308.74,301.81,6.93, 
104,25, F, adult,1,2,32,132,14,2,1,296.1,289.16,6.93, 
104,25, F, adult,1,6,32,132,15,2,1,339.39,335.7,3.7, 
104,25, F, adult,2,3,32,132,16,2,0,399.18,396.34,2.84, 
104,25, F, adult,1,7,32,132,17,2,1,346.47,342.47,3.99, 
104,25, F, adult,1,6,32,132,18,2,1,293.19,290.54,2.65, 
104,25, F, adult,1,6,32,132,19,2,1,438.53,435.17,3.36, 
104,25, F, adult,1,4,32,132,20,2,1,329.42,321.95,7.47, 
104,25, F, adult,1,6,32,132,21,2,1,286.23,283.06,3.18, 
104,25, F, adult,1,6,32,132,22,2,1,277.25,270.19,7.06, 
104,25, F, adult,2,3,0,132,23,2,1,0,0,0, 
104,25, F, adult,1,2,32,132,24,2,1,250.75,246.21,4.54, 
104,25, F, adult,1,9,32,132,25,2,1,410.04,406.99,3.05, 
104,25, F, adult,1,5,32,132,26,2,1,329.74,324.02,5.72, 
104,25, F, adult,1,8,32,132,27,2,1,332.28,321.45,10.83, 
104,25, F, adult,1,5,32,132,28,2,1,266.11,259.36,6.75, 
104,25, F, adult,1,2,32,132,29,2,1,261.69,257.6,4.09, 
104,25, F, adult,1,5,32,132,30,2,1,335.93,328.18,7.76, 
104,25, F, adult,1,4,32,132,31,2,1,317.77,314.46,3.31, 
104,25, F, adult,1,1,32,132,32,2,1,324.1,317.06,7.04, 
104,25, F, adult,1,8,32,132,33,2,1,313.23,306.48,6.76, 
104,25, F, adult,1,1,32,132,34,2,1,382.35,379.17,3.18, 
104,25, F, adult,1,9,32,132,35,2,1,305.98,301.11,4.87, 
104,25, F, adult,1,8,32,132,36,2,1,275.44,272.77,2.67, 
104,25, F, adult,1,1,32,132,37,2,1,335.17,330.96,4.21, 
104,25, F, adult,1,6,32,132,38,2,1,396.76,389.83,6.93, 
104,25, F, adult,1,2,32,132,39,2,1,320.13,315.96,4.17, 
104,25, F, adult,3,111,97,132,40,2,999,1502.96,1500.03,2.92, 
104,25, F, adult,1,7,32,132,41,2,1,359.69,356.7,2.99, 
104,25, F, adult,1,7,32,132,42,2,1,266.65,259.77,6.87, 
104,25, F, adult,1,6,32,132,43,2,1,390.75,387.84,2.91, 
104,25, F, adult,1,1,32,132,44,2,1,367.77,364.53,3.24, 
104,25, F, adult,2,3,0,132,45,2,1,0,0,0, 
104,25, F, adult,1,7,32,132,46,2,1,414.51,410.41,4.1, 
104,25, F, adult,1,9,32,132,47,2,1,371.02,368.01,3, 
104,25, F, adult,1,5,32,132,48,2,1,403.94,396.86,7.08, 
104,25, F, adult,1,1,32,132,49,2,1,431.96,423.76,8.2, 
104,25, F, adult,1,6,32,132,50,2,1,277.38,271.7,5.67, 
104,25, F, adult,2,3,0,132,51,2,1,0,0,0, 
104,25, F, adult,1,2,32,132,52,2,1,313.74,310.63,3.11, 
104,25, F, adult,1,8,32,132,53,2,1,317.77,310.73,7.04, 
104,25, F, adult,1,1,32,132,54,2,1,434.21,431.06,3.16, 
104,25, F, adult,1,1,32,132,55,2,1,378.9,373.77,5.13, 
104,25, F, adult,2,3,0,132,56,2,1,0,0,0, 
104,25, F, adult,1,9,32,132,57,2,1,237.2,232.76,4.44, 
104,25, F, adult,1,1,32,132,58,2,1,355.25,351.04,4.22, 
104,25, F, adult,1,7,32,132,59,2,1,287.72,284.73,2.99, 
104,25, F, adult,3,111,97,132,60,2,999,1089.38,1086.57,2.81, 
104,25, F, adult,1,4,32,132,61,2,1,395.37,392.55,2.82, 
104,25, F, adult,1,5,32,132,62,2,1,279.57,276.22,3.36, 
104,25, F, adult,2,3,0,132,63,2,1,0,0,0, 
104,25, F, adult,1,5,32,132,64,2,1,337.04,332.59,4.45, 
104,25, F, adult,1,9,32,132,65,2,1,295.42,291.55,3.87, 
104,25, F, adult,1,4,32,132,66,2,1,272.09,269.31,2.78, 
104,25, F, adult,1,7,32,132,67,2,1,309.78,305.68,4.1, 
104,25, F, adult,1,6,32,132,68,2,1,264.62,261.93,2.69, 
104,25, F, adult,1,5,32,132,69,2,1,277.33,273.29,4.04, 
104,25, F, adult,1,5,32,132,70,2,1,305.16,301.56,3.6, 
104,25, F, adult,2,3,32,132,71,2,0,554.27,551.31,2.95, 
104,25, F, adult,1,6,32,132,72,2,1,284.2,281.2,2.99, 
104,25, F, adult,1,8,32,132,73,2,1,439.83,437.1,2.73, 
104,25, F, adult,1,1,32,132,74,2,1,282.98,280.18,2.8, 
104,25, F, adult,2,3,0,132,75,2,1,0,0,0, 
104,25, F, adult,1,7,32,132,76,2,1,314.2,310.22,3.98, 
104,25, F, adult,1,4,32,132,77,2,1,349.74,345.29,4.45, 
104,25, F, adult,1,9,32,132,78,2,1,239.14,236.31,2.83, 
104,25, F, adult,2,3,32,132,79,2,0,477.16,473.28,3.89, 
104,25, F, adult,1,5,32,132,80,2,1,412.64,409.78,2.87, 
104,25, F, adult,1,2,32,132,81,2,1,320.1,315.89,4.2, 
104,25, F, adult,1,4,32,132,82,2,1,313.86,311.01,2.85, 
104,25, F, adult,3,111,99,132,83,2,999,1093.3,1090.57,2.73, 
104,25, F, adult,1,6,32,132,84,2,1,388.73,385.99,2.74, 
104,25, F, adult,1,9,32,132,85,2,1,431.35,422.99,8.36, 
104,25, F, adult,2,3,0,132,86,2,1,0,0,0, 
104,25, F, adult,1,9,32,132,87,2,1,234.48,230.27,4.21, 
104,25, F, adult,1,4,32,132,88,2,1,277.19,269.94,7.25, 
104,25, F, adult,1,6,32,132,89,2,1,319.98,316.04,3.94, 
104,25, F, adult,1,2,32,132,90,2,1,252.78,245.68,7.1, 
104,25, F, adult,1,1,32,132,91,2,1,323.39,320.04,3.34, 
104,25, F, adult,1,5,32,132,92,2,1,365.05,362.33,2.72, 
104,25, F, adult,1,5,32,132,93,2,1,275.3,271.22,4.08, 
104,25, F, adult,1,9,32,132,94,2,1,422.92,418.77,4.15, 
104,25, F, adult,2,3,32,132,95,2,0,318.52,315.56,2.96, 
104,25, F, adult,1,9,32,132,96,2,1,265.14,258.11,7.03, 
104,25, F, adult,1,1,32,132,97,2,1,317.84,310.74,7.11, 
104,25, F, adult,1,7,32,132,98,2,1,356.67,350.77,5.9, 
104,25, F, adult,1,2,32,132,99,2,1,388.15,385.34,2.81, 
104,25, F, adult,1,8,32,132,100,2,1,242.41,238.42,4, 
104,25, F, adult,3,111,99,132,101,2,999,1065.16,1062.36,2.8, 
104,25, F, adult,1,2,32,132,102,2,1,356.68,349.3,7.39, 
104,25, F, adult,1,4,32,132,103,2,1,297.91,293.8,4.11, 
104,25, F, adult,1,1,32,132,104,2,1,403.12,400.17,2.94, 
104,25, F, adult,1,4,32,132,105,2,1,302.09,299.13,2.96, 
104,25, F, adult,1,2,32,132,106,2,1,383.29,380.42,2.87, 
104,25, F, adult,1,9,32,132,107,2,1,442.88,439.85,3.03, 
104,25, F, adult,1,8,32,132,108,2,1,442.9,438.12,4.78, 
104,25, F, adult,1,8,32,132,109,2,1,385.91,382.85,3.06, 
104,25, F, adult,1,7,32,132,110,2,1,284.77,280.78,3.99, 
104,25, F, adult,1,5,32,132,111,2,1,265.57,261.61,3.97, 
104,25, F, adult,1,2,32,132,112,2,1,322.91,315.64,7.27, 
104,25, F, adult,1,7,32,132,113,2,1,286.01,279.26,6.75, 
104,25, F, adult,1,8,32,132,114,2,1,288.43,285.37,3.06, 
104,25, F, adult,2,3,0,132,115,2,1,0,0,0, 
104,25, F, adult,1,9,32,132,116,2,1,321.6,317.32,4.29, 
104,25, F, adult,1,2,32,132,117,2,1,280.01,277.29,2.72, 
104,25, F, adult,1,4,32,132,118,2,1,363.91,359.7,4.21, 
104,25, F, adult,3,111,99,132,119,2,999,1676.26,1673.47,2.79, 
104,25, F, adult,1,8,32,132,120,2,1,418.64,414.53,4.11, 
104,25, F, adult,1,8,32,132,121,2,1,284.82,280.72,4.1, 
104,25, F, adult,1,6,32,132,122,2,1,370.34,366.49,3.84, 
104,25, F, adult,1,1,32,132,123,2,1,344.86,341.86,3, 
104,25, F, adult,1,2,32,132,124,2,1,261.65,257.59,4.07, 
104,25, F, adult,1,4,32,132,125,2,1,417.04,413.49,3.55, 
104,25, F, adult,1,7,32,132,126,2,1,342.18,336.3,5.87, 
104,25, F, adult,1,4,32,132,127,2,1,407.53,403.43,4.1, 
104,25, F, adult,1,7,32,132,128,2,1,348.08,344.1,3.98, 
104,25, F, adult,1,6,32,132,129,2,1,341.47,338.74,2.73, 
104,25, F, adult,1,7,32,132,130,2,1,302.23,298.96,3.27, 
104,25, F, adult,1,8,32,132,131,2,1,317.09,313.38,3.71, 
106,19, F, lat,1,9,32,132,1,1,1,742.79,739.21,3.58, 
106,19, F, lat,1,8,32,132,2,1,1,512.99,509.99,2.99, 
106,19, F, lat,2,3,0,132,3,1,1,0,0,0, 
106,19, F, lat,1,6,32,132,4,1,1,823.32,820.27,3.05, 
106,19, F, lat,1,8,32,132,5,1,1,490.34,487.33,3.01, 
106,19, F, lat,1,4,32,132,6,1,1,558.51,555.54,2.98, 
106,19, F, lat,1,2,32,132,7,1,1,760.87,757.81,3.05, 
106,19, F, lat,1,1,32,132,8,1,1,492.06,488.93,3.13, 
106,19, F, lat,1,6,32,132,9,1,1,638.19,629.08,9.1, 
106,19, F, lat,1,8,32,132,10,1,1,521.37,518.53,2.83, 
106,19, F, lat,1,9,32,132,11,1,1,478.14,475.41,2.73, 
106,19, F, lat,1,4,32,132,12,1,1,471,467.94,3.06, 
106,19, F, lat,1,7,32,132,13,1,1,565.22,561.5,3.71, 
106,19, F, lat,1,6,32,132,14,1,1,487.05,484.24,2.82, 
106,19, F, lat,2,3,0,132,15,1,1,0,0,0, 
106,19, F, lat,1,8,32,132,16,1,1,407.22,403.13,4.09, 
106,19, F, lat,1,5,32,132,17,1,1,367.29,363.98,3.31, 
106,19, F, lat,1,9,32,132,18,1,1,553.4,550.67,2.72, 
106,19, F, lat,1,5,32,132,19,1,1,605.9,602.86,3.05, 
106,19, F, lat,1,4,32,132,20,1,1,912.89,910.13,2.76, 
106,19, F, lat,1,4,32,132,21,1,1,867.64,864.59,3.05, 
106,19, F, lat,2,3,0,132,22,1,1,0,0,0, 
106,19, F, lat,1,6,32,132,23,1,1,441.04,438.09,2.95, 
106,19, F, lat,1,7,32,132,24,1,1,414.43,411.07,3.36, 
106,19, F, lat,1,9,32,132,25,1,1,472.74,470.09,2.65, 
106,19, F, lat,2,3,0,132,26,1,1,0,0,0, 
106,19, F, lat,1,6,32,132,27,1,1,557.27,554.44,2.83, 
106,19, F, lat,1,1,32,132,28,1,1,1164.76,1161.78,2.98, 
106,19, F, lat,1,1,32,132,29,1,1,350.82,337.3,13.52, 
106,19, F, lat,1,9,32,132,30,1,1,314.02,307.04,6.99, 
106,19, F, lat,1,6,32,132,31,1,1,529.96,526.58,3.38, 
106,19, F, lat,1,2,32,132,32,1,1,717.44,714.29,3.15, 
106,19, F, lat,2,3,0,132,33,1,1,0,0,0, 
106,19, F, lat,1,8,32,132,34,1,1,430.07,427.2,2.87, 
106,19, F, lat,1,5,32,132,35,1,1,433.89,430.84,3.05, 
106,19, F, lat,1,6,32,132,36,1,1,534.05,526.94,7.11, 
106,19, F, lat,1,6,32,132,37,1,1,467.71,465.04,2.67, 
106,19, F, lat,1,4,32,132,38,1,1,600.29,597.14,3.15, 
106,19, F, lat,2,3,0,132,39,1,1,0,0,0, 
106,19, F, lat,1,2,32,132,40,1,1,313.47,307.22,6.25, 
106,19, F, lat,1,1,32,132,41,1,1,335.08,331.77,3.3, 
106,19, F, lat,1,7,32,132,42,1,1,331.12,321.17,9.95, 
106,19, F, lat,1,9,32,132,43,1,1,380.69,377.87,2.82, 
106,19, F, lat,1,4,32,132,44,1,1,267.39,264.5,2.89, 
106,19, F, lat,1,9,32,132,45,1,1,588.26,585.37,2.88, 
106,19, F, lat,2,3,0,132,46,1,1,0,0,0, 
106,19, F, lat,1,2,32,132,47,1,1,282.57,277.64,4.93, 
106,19, F, lat,1,2,32,132,48,1,1,389.9,385.77,4.13, 
106,19, F, lat,1,7,32,132,49,1,1,423.25,419.89,3.36, 
106,19, F, lat,1,5,32,132,50,1,1,818.1,815.1,3.01, 
106,19, F, lat,1,2,32,132,51,1,1,1046.7,1043.85,2.85, 
106,19, F, lat,1,4,32,132,52,1,1,881.64,878.67,2.98, 
106,19, F, lat,1,4,32,132,53,1,1,461.97,459.07,2.89, 
106,19, F, lat,1,4,32,132,54,1,1,456.29,453.32,2.97, 
106,19, F, lat,1,8,32,132,55,1,1,505.15,502.16,2.99, 
106,19, F, lat,1,1,32,132,56,1,1,503.33,499.14,4.18, 
106,19, F, lat,1,2,32,132,57,1,1,453.54,448.89,4.65, 
106,19, F, lat,1,4,32,132,58,1,1,596.42,593.74,2.68, 
106,19, F, lat,2,3,0,132,59,1,1,0,0,0, 
106,19, F, lat,1,7,32,132,60,1,1,473.78,471.01,2.76, 
106,19, F, lat,1,5,32,132,61,1,1,925.94,922.9,3.04, 
106,19, F, lat,1,9,32,132,62,1,1,457.8,455,2.81, 
106,19, F, lat,1,1,32,132,63,1,1,524.2,520.8,3.4, 
106,19, F, lat,1,4,32,132,64,1,1,405.69,398.51,7.18, 
106,19, F, lat,3,111,99,132,65,1,999,10864.33,10862.15,2.18, 
106,19, F, lat,1,2,32,132,66,1,1,612.72,609.75,2.97, 
106,19, F, lat,1,4,32,132,67,1,1,353.85,349.83,4.03, 
106,19, F, lat,1,8,32,132,68,1,1,467.47,464.46,3.01, 
106,19, F, lat,1,9,32,132,69,1,1,413.32,410.31,3.01, 
106,19, F, lat,1,7,32,132,70,1,1,383.38,380.5,2.89, 
106,19, F, lat,1,9,32,132,71,1,1,419.03,414.71,4.31, 
106,19, F, lat,1,1,32,132,72,1,1,472.98,465.98,7, 
106,19, F, lat,1,6,32,132,73,1,1,537.95,527.43,10.52, 
106,19, F, lat,1,8,32,132,74,1,1,765.12,762.37,2.75, 
106,19, F, lat,1,5,32,132,75,1,1,335.7,331.07,4.64, 
106,19, F, lat,1,7,32,132,76,1,1,355.7,353.04,2.66, 
106,19, F, lat,3,111,97,132,77,1,999,2747.88,2745.03,2.85, 
106,19, F, lat,1,6,32,132,78,1,1,987.3,984.56,2.75, 
106,19, F, lat,1,7,32,132,79,1,1,376.12,373.35,2.78, 
106,19, F, lat,2,3,0,132,80,1,1,0,0,0, 
106,19, F, lat,1,5,32,132,81,1,1,764.43,761.53,2.9, 
106,19, F, lat,1,1,32,132,82,1,1,768.57,765.52,3.05, 
106,19, F, lat,1,6,32,132,83,1,1,513.64,510.82,2.81, 
106,19, F, lat,1,9,32,132,84,1,1,312.8,308.75,4.05, 
106,19, F, lat,2,3,0,132,85,1,1,0,0,0, 
106,19, F, lat,1,2,32,132,86,1,1,741.52,732.53,8.99, 
106,19, F, lat,1,9,32,132,87,1,1,529.35,522.56,6.79, 
106,19, F, lat,1,8,32,132,88,1,1,285.4,281.29,4.11, 
106,19, F, lat,1,5,32,132,89,1,1,351.37,346.74,4.63, 
106,19, F, lat,1,4,32,132,90,1,1,381.7,376.35,5.35, 
106,19, F, lat,1,1,32,132,91,1,1,341.17,338.29,2.88, 
106,19, F, lat,1,7,32,132,92,1,1,505.03,501.29,3.74, 
106,19, F, lat,1,2,32,132,93,1,1,634.12,629.95,4.17, 
106,19, F, lat,1,7,32,132,94,1,1,628.51,625.51,3, 
106,19, F, lat,2,3,0,132,95,1,1,0,0,0, 
106,19, F, lat,1,7,32,132,96,1,1,833.38,830.36,3.03, 
106,19, F, lat,1,8,32,132,97,1,1,1165.52,1162.58,2.93, 
106,19, F, lat,1,7,32,132,98,1,1,649.99,646.72,3.27, 
106,19, F, lat,1,8,32,132,99,1,1,772.8,765.51,7.29, 
106,19, F, lat,3,111,100,132,100,1,999,5718.78,5715.77,3.01, 
106,19, F, lat,1,5,32,132,101,1,1,470.38,467.47,2.91, 
106,19, F, lat,1,5,32,132,102,1,1,707.53,704.55,2.98, 
106,19, F, lat,1,1,32,132,103,1,1,613.72,610.69,3.03, 
106,19, F, lat,1,4,32,132,104,1,1,463.44,460.5,2.94, 
106,19, F, lat,1,7,32,132,105,1,1,514.17,511.6,2.56, 
106,19, F, lat,2,3,0,132,106,1,1,0,0,0, 
106,19, F, lat,1,9,32,132,107,1,1,581.33,575.25,6.08, 
106,19, F, lat,1,5,32,132,108,1,1,339.18,336.31,2.86, 
106,19, F, lat,1,8,32,132,109,1,1,494.36,491.69,2.67, 
106,19, F, lat,1,6,32,132,110,1,1,387.99,384.41,3.58, 
106,19, F, lat,3,111,97,132,111,1,999,1685.26,1682.23,3.03, 
106,19, F, lat,1,1,0,132,112,1,0,0,0,0, 
106,19, F, lat,1,6,32,132,113,1,1,352.85,345.67,7.18, 
106,19, F, lat,1,2,32,132,114,1,1,328.5,321.13,7.37, 
106,19, F, lat,1,2,32,132,115,1,1,377.74,374.86,2.88, 
106,19, F, lat,2,3,0,132,116,1,1,0,0,0, 
106,19, F, lat,1,2,32,132,117,1,1,350.5,347.53,2.97, 
106,19, F, lat,1,1,32,132,118,1,1,442,439.26,2.74, 
106,19, F, lat,1,7,32,132,119,1,1,523.88,519.56,4.33, 
106,19, F, lat,1,9,32,132,120,1,1,583.62,580.7,2.93, 
106,19, F, lat,1,2,32,132,121,1,1,642.15,638.95,3.2, 
106,19, F, lat,3,111,100,132,122,1,999,3301.04,3297.69,3.35, 
106,19, F, lat,1,5,32,132,123,1,1,820.02,817.16,2.87, 
106,19, F, lat,1,6,32,132,124,1,1,377.49,374.85,2.64, 
106,19, F, lat,1,5,32,132,125,1,1,548.86,545.49,3.38, 
106,19, F, lat,1,8,32,132,126,1,1,398.55,395.61,2.93, 
106,19, F, lat,1,5,32,132,127,1,1,402.3,399.53,2.77, 
106,19, F, lat,1,1,32,132,128,1,1,303.54,299.64,3.9, 
106,19, F, lat,2,3,0,132,129,1,1,0,0,0, 
106,19, F, lat,1,1,32,132,130,1,1,660.42,657.46,2.96, 
106,19, F, lat,1,8,32,132,131,1,1,758.56,755.92,2.64, 
106,19, F, lat,1,5,32,132,1,2,1,4.01,0.16,3.85, 
106,19, F, lat,1,5,32,132,2,2,1,557.39,554.7,2.69, 
106,19, F, lat,1,2,32,132,3,2,1,475.05,472.23,2.82, 
106,19, F, lat,1,7,32,132,4,2,1,487.9,483.53,4.36, 
106,19, F, lat,1,4,32,132,5,2,1,310.91,304.04,6.87, 
106,19, F, lat,3,111,97,132,6,2,999,2226.78,2223.65,3.12, 
106,19, F, lat,1,8,32,132,7,2,1,518.73,515.25,3.48, 
106,19, F, lat,1,2,32,132,8,2,1,313.26,310.43,2.84, 
106,19, F, lat,1,9,32,132,9,2,1,403.82,399.85,3.97, 
106,19, F, lat,1,2,32,132,10,2,1,448.43,445.4,3.03, 
106,19, F, lat,3,111,97,132,11,2,999,1369.64,1365.87,3.76, 
106,19, F, lat,1,9,32,132,12,2,1,437.35,434.67,2.68, 
106,19, F, lat,1,5,32,132,13,2,1,365.92,358.92,7.01, 
106,19, F, lat,1,5,32,132,14,2,1,634.85,627.55,7.29, 
106,19, F, lat,2,3,0,132,15,2,1,0,0,0, 
106,19, F, lat,1,4,32,132,16,2,1,381.85,377.88,3.97, 
106,19, F, lat,1,6,32,132,17,2,1,392.18,389.27,2.91, 
106,19, F, lat,1,7,32,132,18,2,1,517.8,513.34,4.46, 
106,19, F, lat,1,6,32,132,19,2,1,542.84,539.82,3.01, 
106,19, F, lat,1,7,32,132,20,2,1,507.1,502.63,4.47, 
106,19, F, lat,2,3,0,132,21,2,1,0,0,0, 
106,19, F, lat,1,9,32,132,22,2,1,458.18,454.46,3.72, 
106,19, F, lat,1,1,32,132,23,2,1,773.91,767.49,6.42, 
106,19, F, lat,1,1,32,132,24,2,1,756.83,754.24,2.59, 
106,19, F, lat,1,6,32,132,25,2,1,462.32,459.09,3.23, 
106,19, F, lat,1,9,32,132,26,2,1,367.83,362.2,5.63, 
106,19, F, lat,1,8,32,132,27,2,1,343.45,340.31,3.15, 
106,19, F, lat,1,5,32,132,28,2,1,331.72,320.96,10.75, 
106,19, F, lat,1,9,32,132,29,2,1,717.87,714.82,3.05, 
106,19, F, lat,1,7,32,132,30,2,1,767.33,764.26,3.07, 
106,19, F, lat,1,6,32,132,31,2,1,626.04,622.46,3.58, 
106,19, F, lat,1,8,32,132,32,2,1,476.3,469.55,6.75, 
106,19, F, lat,1,6,32,132,33,2,1,504.09,501.13,2.96, 
106,19, F, lat,1,5,32,132,34,2,1,410.84,407.33,3.51, 
106,19, F, lat,1,2,32,132,35,2,1,382.58,379.72,2.86, 
106,19, F, lat,1,7,32,132,36,2,1,843.57,840.03,3.54, 
106,19, F, lat,1,8,32,132,37,2,1,474.52,471.88,2.65, 
106,19, F, lat,1,4,32,132,38,2,1,407.91,404.89,3.02, 
106,19, F, lat,2,3,0,132,39,2,1,0,0,0, 
106,19, F, lat,1,2,32,132,40,2,1,405.86,403.2,2.66, 
106,19, F, lat,1,9,32,132,41,2,1,395.61,391.54,4.07, 
106,19, F, lat,1,8,32,132,42,2,1,388.41,385.45,2.97, 
106,19, F, lat,1,1,32,132,43,2,1,434.68,427.39,7.3, 
106,19, F, lat,1,7,32,132,44,2,1,561.32,558.66,2.66, 
106,19, F, lat,1,9,32,132,45,2,1,828.58,825.83,2.74, 
106,19, F, lat,1,5,32,132,46,2,1,545.22,541.49,3.73, 
106,19, F, lat,2,3,0,132,47,2,1,0,0,0, 
106,19, F, lat,1,9,32,132,48,2,1,434.13,430.91,3.22, 
106,19, F, lat,1,1,32,132,49,2,1,577.8,574.98,2.82, 
106,19, F, lat,1,6,32,132,50,2,1,518.18,514.11,4.08, 
106,19, F, lat,1,7,32,132,51,2,1,249.46,245.37,4.09, 
106,19, F, lat,2,3,32,132,52,2,0,242.4,239.22,3.18, 
106,19, F, lat,1,1,32,132,53,2,1,204.42,201.4,3.02, 
106,19, F, lat,1,6,32,132,54,2,1,496.72,493.82,2.9, 
106,19, F, lat,1,7,32,132,55,2,1,290.14,287.17,2.98, 
106,19, F, lat,1,4,32,132,56,2,1,346.76,339.87,6.89, 
106,19, F, lat,1,7,32,132,57,2,1,596.23,592.13,4.1, 
106,19, F, lat,1,4,32,132,58,2,1,667.23,664.21,3.02, 
106,19, F, lat,1,1,32,132,59,2,1,389.86,386.25,3.61, 
106,19, F, lat,2,3,32,132,60,2,0,371.86,365.67,6.19, 
106,19, F, lat,1,8,32,132,61,2,1,1008.6,1002.23,6.37, 
106,19, F, lat,1,4,32,132,62,2,1,676.18,669.51,6.68, 
106,19, F, lat,1,5,32,132,63,2,1,411.34,406.94,4.4, 
106,19, F, lat,2,3,0,132,64,2,1,0,0,0, 
106,19, F, lat,1,6,32,132,65,2,1,441.69,438.54,3.16, 
106,19, F, lat,1,2,32,132,66,2,1,476.85,473.86,2.99, 
106,19, F, lat,1,2,32,132,67,2,1,528.77,523.87,4.9, 
106,19, F, lat,1,7,32,132,68,2,1,475.46,472.38,3.08, 
106,19, F, lat,1,1,32,132,69,2,1,701.85,698.8,3.06, 
106,19, F, lat,1,9,32,132,70,2,1,511.69,508.69,3, 
106,19, F, lat,1,8,32,132,71,2,1,420.78,417.88,2.9, 
106,19, F, lat,1,6,32,132,72,2,1,325.88,318.98,6.9, 
106,19, F, lat,1,2,32,132,73,2,1,761.3,758.42,2.88, 
106,19, F, lat,1,6,0,132,74,2,0,0,0,0, 
106,19, F, lat,2,3,0,132,75,2,1,0,0,0, 
106,19, F, lat,1,9,32,132,76,2,1,515.31,512.61,2.71, 
106,19, F, lat,1,4,32,132,77,2,1,1021.94,1017.47,4.47, 
106,19, F, lat,1,8,32,132,78,2,1,522.57,515.63,6.95, 
106,19, F, lat,3,111,100,132,79,2,999,3275.09,3272.13,2.96, 
106,19, F, lat,1,4,32,132,80,2,1,558.37,555.51,2.86, 
106,19, F, lat,1,2,32,132,81,2,1,340.1,336.88,3.22, 
106,19, F, lat,1,7,32,132,82,2,1,323.93,320.56,3.38, 
106,19, F, lat,1,9,32,132,83,2,1,473.97,469.63,4.33, 
106,19, F, lat,1,2,32,132,84,2,1,597.53,592.96,4.57, 
106,19, F, lat,1,7,32,132,85,2,1,459.93,456.9,3.03, 
106,19, F, lat,2,3,0,132,86,2,1,0,0,0, 
106,19, F, lat,1,1,32,132,87,2,1,491.14,488.26,2.88, 
106,19, F, lat,1,5,32,132,88,2,1,393.39,388.71,4.68, 
106,19, F, lat,1,7,32,132,89,2,1,297.5,294.7,2.8, 
106,19, F, lat,1,7,32,132,90,2,1,555.78,552.91,2.87, 
106,19, F, lat,1,9,32,132,91,2,1,399.43,395.29,4.14, 
106,19, F, lat,1,8,32,132,92,2,1,714.15,711.58,2.56, 
106,19, F, lat,1,9,32,132,93,2,1,539.83,528.77,11.06, 
106,19, F, lat,1,8,32,132,94,2,1,609.22,606.49,2.74, 
106,19, F, lat,1,4,32,132,95,2,1,848.82,845.91,2.91, 
106,19, F, lat,2,3,0,132,96,2,1,0,0,0, 
106,19, F, lat,1,6,32,132,97,2,1,514.54,511.62,2.92, 
106,19, F, lat,1,4,32,132,98,2,1,773.33,770.84,2.49, 
106,19, F, lat,1,8,32,132,99,2,1,648.2,645.3,2.91, 
106,19, F, lat,1,1,32,132,100,2,1,961.3,954.29,7.01, 
106,19, F, lat,1,4,32,132,101,2,1,1237.04,1234.18,2.86, 
106,19, F, lat,3,111,100,132,102,2,999,2728.79,2725.92,2.87, 
106,19, F, lat,1,8,32,132,103,2,1,1072.67,1069.84,2.82, 
106,19, F, lat,1,6,32,132,104,2,1,763.63,760.94,2.69, 
106,19, F, lat,2,3,0,132,105,2,1,0,0,0, 
106,19, F, lat,1,6,32,132,106,2,1,796.58,790.65,5.93, 
106,19, F, lat,1,1,32,132,107,2,1,557.03,554.22,2.82, 
106,19, F, lat,1,1,32,132,108,2,1,401.32,395.06,6.26, 
106,19, F, lat,1,4,32,132,109,2,1,489.97,487.08,2.88, 
106,19, F, lat,2,3,0,132,110,2,1,0,0,0, 
106,19, F, lat,1,1,32,132,111,2,1,457.55,453.35,4.2, 
106,19, F, lat,1,6,32,132,112,2,1,505.95,503.23,2.72, 
106,19, F, lat,1,1,32,132,113,2,1,554.23,549.77,4.46, 
106,19, F, lat,1,4,32,132,114,2,1,441.66,436.98,4.67, 
106,19, F, lat,1,1,32,132,115,2,1,848.72,846.11,2.62, 
106,19, F, lat,1,2,32,132,116,2,1,556.38,552.28,4.1, 
106,19, F, lat,1,5,32,132,117,2,1,481.52,478.5,3.02, 
106,19, F, lat,2,3,32,132,118,2,0,427.29,420.31,6.97, 
106,19, F, lat,1,2,32,132,119,2,1,463.94,461.2,2.74, 
106,19, F, lat,1,5,32,132,120,2,1,559.33,551.32,8.01, 
106,19, F, lat,1,8,32,132,121,2,1,558.61,554.53,4.08, 
106,19, F, lat,2,3,32,132,122,2,0,141.36,134.49,6.87, 
106,19, F, lat,1,8,32,132,123,2,1,619.77,617.08,2.69, 
106,19, F, lat,1,5,0,132,124,2,0,0,0,0, 
106,19, F, lat,1,5,32,132,125,2,1,482.99,480.12,2.86, 
106,19, F, lat,3,111,99,132,126,2,999,3765.25,3762.25,3, 
106,19, F, lat,1,2,32,132,127,2,1,1131.45,1128.72,2.73, 
106,19, F, lat,1,5,32,132,128,2,1,1094.2,1091.49,2.71, 
106,19, F, lat,1,2,32,132,129,2,1,747.67,744.22,3.45, 
106,19, F, lat,1,9,32,132,130,2,1,644.45,641.66,2.79, 
106,19, F, lat,1,4,32,132,131,2,1,417.86,413.75,4.11, 
109,11, F, ea,1,7,32,132,1,1,1,810.96,807.35,3.61, 
109,11, F, ea,1,7,32,132,2,1,1,557.45,553.89,3.56, 
109,11, F, ea,1,5,32,132,3,1,1,852.81,849.04,3.77, 
109,11, F, ea,1,8,32,132,4,1,1,486.92,483.48,3.44, 
109,11, F, ea,1,8,32,132,5,1,1,489.51,486.07,3.44, 
109,11, F, ea,1,2,32,132,6,1,1,368.42,364.07,4.35, 
109,11, F, ea,2,3,32,132,7,1,0,257.4,253.95,3.45, 
109,11, F, ea,1,1,32,132,8,1,1,373.32,369.86,3.46, 
109,11, F, ea,1,8,32,132,9,1,1,758.81,755.42,3.39, 
109,11, F, ea,1,6,32,132,10,1,1,470.54,466.94,3.6, 
109,11, F, ea,1,5,32,132,11,1,1,418.43,414.55,3.88, 
109,11, F, ea,1,4,32,132,12,1,1,346.11,342.65,3.46, 
109,11, F, ea,3,111,100,132,13,1,999,13154.76,13151.09,3.67, 
109,11, F, ea,1,5,32,132,14,1,1,947.15,937.62,9.53, 
109,11, F, ea,1,7,32,132,15,1,1,487.72,484.18,3.54, 
109,11, F, ea,1,5,32,132,16,1,1,600.03,596.53,3.5, 
109,11, F, ea,1,2,32,132,17,1,1,404.06,400.65,3.4, 
109,11, F, ea,1,6,32,132,18,1,1,653.56,650.04,3.51, 
109,11, F, ea,1,4,32,132,19,1,1,392.61,389.23,3.38, 
109,11, F, ea,2,3,0,132,20,1,1,0,0,0, 
109,11, F, ea,1,4,32,132,21,1,1,617.27,613.72,3.55, 
109,11, F, ea,1,5,32,132,22,1,1,569.91,566.37,3.54, 
109,11, F, ea,1,5,32,132,23,1,1,535.35,531.55,3.8, 
109,11, F, ea,1,6,32,132,24,1,1,517.77,514.39,3.38, 
109,11, F, ea,1,1,32,132,25,1,1,766.59,763.04,3.56, 
109,11, F, ea,1,5,32,132,26,1,1,719.77,716.05,3.72, 
109,11, F, ea,2,3,32,132,27,1,0,416.15,412.23,3.92, 
109,11, F, ea,1,9,32,132,28,1,1,1155.05,1151.42,3.63, 
109,11, F, ea,1,2,32,132,29,1,1,499.47,495.83,3.65, 
109,11, F, ea,1,9,32,132,30,1,1,387.65,384.17,3.48, 
109,11, F, ea,1,7,32,132,31,1,1,333.24,323.13,10.11, 
109,11, F, ea,1,7,32,132,32,1,1,368.02,364.44,3.58, 
109,11, F, ea,1,4,32,132,33,1,1,290.81,287.37,3.44, 
109,11, F, ea,1,6,32,132,34,1,1,757.2,753.84,3.37, 
109,11, F, ea,2,3,0,132,35,1,1,0,0,0, 
109,11, F, ea,1,7,32,132,36,1,1,357.33,353.81,3.51, 
109,11, F, ea,1,8,32,132,37,1,1,635.2,631.52,3.68, 
109,11, F, ea,1,5,32,132,38,1,1,581.42,574.19,7.23, 
109,11, F, ea,1,7,32,132,39,1,1,754.8,751.34,3.46, 
109,11, F, ea,2,3,32,132,40,1,0,707.66,704.14,3.51, 
109,11, F, ea,1,4,32,132,41,1,1,9.02,0.68,8.35, 
109,11, F, ea,1,9,32,132,42,1,1,502.44,498.62,3.82, 
109,11, F, ea,1,5,32,132,43,1,1,753.62,750.11,3.5, 
109,11, F, ea,1,6,32,132,44,1,1,854.19,846.52,7.68, 
109,11, F, ea,1,2,32,132,45,1,1,714.12,709.66,4.46, 
109,11, F, ea,1,6,32,132,46,1,1,499.38,495.84,3.54, 
109,11, F, ea,1,7,32,132,47,1,1,356.22,352.7,3.52, 
109,11, F, ea,1,7,32,132,48,1,1,366.19,362.66,3.53, 
109,11, F, ea,1,2,32,132,49,1,1,639.03,628.59,10.44, 
109,11, F, ea,1,9,32,132,50,1,1,481.42,477.89,3.53, 
109,11, F, ea,2,3,0,132,51,1,1,0,0,0, 
109,11, F, ea,1,8,32,132,52,1,1,572.72,569.1,3.62, 
109,11, F, ea,1,4,32,132,53,1,1,1020.6,1016.52,4.08, 
109,11, F, ea,1,4,0,132,54,1,0,0,0,0, 
109,11, F, ea,2,3,0,132,55,1,1,0,0,0, 
109,11, F, ea,1,1,32,132,56,1,1,577.53,573.98,3.56, 
109,11, F, ea,1,4,32,132,57,1,1,470.27,466.91,3.37, 
109,11, F, ea,1,9,32,132,58,1,1,395.96,391.67,4.29, 
109,11, F, ea,2,3,0,132,59,1,1,0,0,0, 
109,11, F, ea,1,1,32,132,60,1,1,713.26,709.87,3.39, 
109,11, F, ea,1,7,32,132,61,1,1,897.34,893.83,3.5, 
109,11, F, ea,1,2,32,132,62,1,1,923.04,919.5,3.55, 
109,11, F, ea,2,3,0,132,63,1,1,0,0,0, 
109,11, F, ea,1,9,32,132,64,1,1,925.24,921.68,3.57, 
109,11, F, ea,1,4,0,132,65,1,0,0,0,0, 
109,11, F, ea,1,8,32,132,66,1,1,688.09,684.57,3.53, 
109,11, F, ea,1,1,32,132,67,1,1,378.93,375.55,3.38, 
109,11, F, ea,1,2,32,132,68,1,1,819,815.47,3.53, 
109,11, F, ea,1,2,32,132,69,1,1,1052.69,1048.96,3.73, 
109,11, F, ea,2,3,0,132,70,1,1,0,0,0, 
109,11, F, ea,1,5,32,132,71,1,1,1151.74,1147.93,3.81, 
109,11, F, ea,1,8,32,132,72,1,1,456.66,453.05,3.6, 
109,11, F, ea,1,5,32,132,73,1,1,483.8,480.37,3.43, 
109,11, F, ea,1,5,32,132,74,1,1,581.41,578.14,3.27, 
109,11, F, ea,2,3,0,132,75,1,1,0,0,0, 
109,11, F, ea,1,7,32,132,76,1,1,813.55,809.23,4.32, 
109,11, F, ea,1,1,32,132,77,1,1,584.3,580.74,3.56, 
109,11, F, ea,1,6,32,132,78,1,1,673.23,669.56,3.67, 
109,11, F, ea,1,4,32,132,79,1,1,483.74,480.06,3.68, 
109,11, F, ea,1,7,32,132,80,1,1,468.98,465.63,3.35, 
109,11, F, ea,1,1,32,132,81,1,1,1068.41,1064.92,3.49, 
109,11, F, ea,2,3,0,132,82,1,1,0,0,0, 
109,11, F, ea,1,4,32,132,83,1,1,809.94,806.65,3.29, 
109,11, F, ea,1,5,32,132,84,1,1,545.86,542.16,3.7, 
109,11, F, ea,1,9,32,132,85,1,1,949.6,945.85,3.75, 
109,11, F, ea,1,2,32,132,86,1,1,1060.44,1056.86,3.58, 
109,11, F, ea,2,3,0,132,87,1,1,0,0,0, 
109,11, F, ea,1,6,32,132,88,1,1,622.76,618.26,4.51, 
109,11, F, ea,1,6,32,132,89,1,1,1097.57,1094.1,3.47, 
109,11, F, ea,1,2,32,132,90,1,1,562.95,559.38,3.57, 
109,11, F, ea,3,111,98,132,91,1,999,17772.73,17769.35,3.38, 
109,11, F, ea,1,6,32,132,92,1,1,538.12,534.35,3.77, 
109,11, F, ea,1,2,32,132,93,1,1,379.87,376.46,3.4, 
109,11, F, ea,1,1,32,132,94,1,1,422.2,418.14,4.06, 
109,11, F, ea,3,111,97,132,95,1,999,7238.72,7235.23,3.49, 
109,11, F, ea,1,2,32,132,96,1,1,527.69,518.13,9.56, 
109,11, F, ea,1,8,32,132,97,1,1,353.26,349.74,3.51, 
109,11, F, ea,1,7,32,132,98,1,1,410.59,407.16,3.43, 
109,11, F, ea,1,7,32,132,99,1,1,538.06,534.41,3.65, 
109,11, F, ea,1,2,32,132,100,1,1,1020.31,1016.77,3.55, 
109,11, F, ea,1,8,0,132,101,1,0,0,0,0, 
109,11, F, ea,1,2,32,132,102,1,1,480.05,476.77,3.28, 
109,11, F, ea,3,111,97,132,103,1,999,3457.92,3454.49,3.43, 
109,11, F, ea,1,6,32,132,104,1,1,1079.61,1076.05,3.56, 
109,11, F, ea,1,1,32,132,105,1,1,583.18,579.55,3.63, 
109,11, F, ea,1,9,32,132,106,1,1,450.43,446.76,3.67, 
109,11, F, ea,3,111,97,132,107,1,999,2474.01,2470.46,3.55, 
109,11, F, ea,1,1,32,132,108,1,1,541.57,537.81,3.77, 
109,11, F, ea,1,6,32,132,109,1,1,616.45,612.17,4.28, 
109,11, F, ea,1,4,32,132,110,1,1,697.29,693.45,3.84, 
109,11, F, ea,1,4,32,132,111,1,1,580.6,577.05,3.55, 
109,11, F, ea,1,8,32,132,112,1,1,627.67,623.22,4.45, 
109,11, F, ea,1,1,32,132,113,1,1,1159.84,1155.78,4.06, 
109,11, F, ea,1,1,32,132,114,1,1,712.64,709.27,3.38, 
109,11, F, ea,1,8,32,132,115,1,1,327.49,318.73,8.75, 
109,11, F, ea,1,9,32,132,116,1,1,352.91,349.33,3.58, 
109,11, F, ea,1,1,32,132,117,1,1,468.12,464.77,3.36, 
109,11, F, ea,1,1,32,132,118,1,1,588.61,585.05,3.56, 
109,11, F, ea,1,5,32,132,119,1,1,480.52,477.23,3.3, 
109,11, F, ea,1,6,32,132,120,1,1,690.07,686.74,3.34, 
109,11, F, ea,1,9,32,132,121,1,1,567.96,564.42,3.54, 
109,11, F, ea,2,3,0,132,122,1,1,0,0,0, 
109,11, F, ea,1,8,32,132,123,1,1,685.03,681.64,3.39, 
109,11, F, ea,1,9,32,132,124,1,1,502.77,499.41,3.36, 
109,11, F, ea,1,9,32,132,125,1,1,890.77,887.04,3.73, 
109,11, F, ea,1,8,32,132,126,1,1,837.83,834.24,3.59, 
109,11, F, ea,1,9,32,132,127,1,1,792.35,788.39,3.96, 
109,11, F, ea,1,6,32,132,128,1,1,390.89,384.42,6.47, 
109,11, F, ea,1,8,32,132,129,1,1,471.04,467.11,3.93, 
109,11, F, ea,1,9,32,132,130,1,1,604.76,600.82,3.94, 
109,11, F, ea,1,4,32,132,131,1,1,391.41,387.67,3.74, 
109,11, F, ea,1,4,32,132,1,2,1,4.74,0.42,4.32, 
109,11, F, ea,1,5,32,132,2,2,1,394.61,391.32,3.29, 
109,11, F, ea,3,111,98,132,3,2,999,3235.55,3232.12,3.43, 
109,11, F, ea,1,8,32,132,4,2,1,744.6,740.92,3.68, 
109,11, F, ea,1,4,32,132,5,2,1,403.15,399.63,3.52, 
109,11, F, ea,1,2,32,132,6,2,1,372.25,368.8,3.45, 
109,11, F, ea,1,5,32,132,7,2,1,392.05,388.71,3.35, 
109,11, F, ea,1,6,32,132,8,2,1,337.78,334.17,3.61, 
109,11, F, ea,2,3,32,132,9,2,0,260.49,256.05,4.45, 
109,11, F, ea,1,2,32,132,10,2,1,9.01,0.68,8.34, 
109,11, F, ea,1,1,32,132,11,2,1,501.26,497.84,3.42, 
109,11, F, ea,1,8,32,132,12,2,1,868.48,864.98,3.5, 
109,11, F, ea,1,9,0,132,13,2,0,0,0,0, 
109,11, F, ea,1,9,0,132,14,2,0,0,0,0, 
109,11, F, ea,1,6,32,132,15,2,1,497.15,493.62,3.53, 
109,11, F, ea,1,7,32,132,16,2,1,505.74,502.27,3.47, 
109,11, F, ea,1,8,32,132,17,2,1,571.88,568.32,3.56, 
109,11, F, ea,3,111,100,132,18,2,999,8110.03,8106.43,3.6, 
109,11, F, ea,1,1,32,132,19,2,1,684.3,680.57,3.73, 
109,11, F, ea,1,9,32,132,20,2,1,428.67,421.22,7.45, 
109,11, F, ea,2,3,32,132,21,2,0,416.15,412.39,3.76, 
109,11, F, ea,1,4,32,132,22,2,1,571.58,568.22,3.36, 
109,11, F, ea,1,5,32,132,23,2,1,428.8,421.79,7, 
109,11, F, ea,1,5,32,132,24,2,1,533.79,529.79,4, 
109,11, F, ea,1,9,32,132,25,2,1,849.07,845.38,3.68, 
109,11, F, ea,1,8,32,132,26,2,1,912.29,908.93,3.35, 
109,11, F, ea,1,2,32,132,27,2,1,770.22,766.73,3.49, 
109,11, F, ea,1,7,32,132,28,2,1,386.7,383.09,3.61, 
109,11, F, ea,1,8,32,132,29,2,1,390.1,386.75,3.35, 
109,11, F, ea,1,7,32,132,30,2,1,284.78,280.58,4.19, 
109,11, F, ea,1,1,32,132,31,2,1,303.2,299.86,3.34, 
109,11, F, ea,1,4,32,132,32,2,1,310.65,307.19,3.46, 
109,11, F, ea,1,6,32,132,33,2,1,243.15,239.64,3.51, 
109,11, F, ea,1,9,32,132,34,2,1,266.56,262.99,3.57, 
109,11, F, ea,2,3,0,132,35,2,1,0,0,0, 
109,11, F, ea,1,6,32,132,36,2,1,656.02,652.53,3.49, 
109,11, F, ea,1,7,32,132,37,2,1,703.67,700.2,3.47, 
109,11, F, ea,1,2,32,132,38,2,1,450.13,446.67,3.46, 
109,11, F, ea,2,3,32,132,39,2,0,329.82,325.95,3.87, 
109,11, F, ea,1,7,32,132,40,2,1,1182.15,1178.71,3.44, 
109,11, F, ea,1,8,32,132,41,2,1,436.73,432.99,3.74, 
109,11, F, ea,1,8,32,132,42,2,1,350.36,346.73,3.63, 
109,11, F, ea,3,111,100,132,43,2,999,5321.03,5317.71,3.32, 
109,11, F, ea,1,6,32,132,44,2,1,853.48,849.83,3.65, 
109,11, F, ea,1,9,32,132,45,2,1,419.89,416.01,3.89, 
109,11, F, ea,2,3,0,132,46,2,1,0,0,0, 
109,11, F, ea,1,9,32,132,47,2,1,309.5,306.08,3.43, 
109,11, F, ea,1,5,32,132,48,2,1,1070.59,1066.95,3.63, 
109,11, F, ea,1,2,0,132,49,2,0,0,0,0, 
109,11, F, ea,1,2,0,132,50,2,0,0,0,0, 
109,11, F, ea,1,1,32,132,51,2,1,441.52,437.86,3.65, 
109,11, F, ea,1,2,32,132,52,2,1,459.15,455.59,3.56, 
109,11, F, ea,2,3,0,132,53,2,1,0,0,0, 
109,11, F, ea,1,9,32,132,54,2,1,624.73,620.68,4.05, 
109,11, F, ea,1,6,32,132,55,2,1,800.85,797.4,3.45, 
109,11, F, ea,1,2,32,132,56,2,1,531.79,528.1,3.69, 
109,11, F, ea,1,7,32,132,57,2,1,961.9,958.29,3.61, 
109,11, F, ea,2,3,0,132,58,2,1,0,0,0, 
109,11, F, ea,1,5,32,132,59,2,1,965.63,962.06,3.57, 
109,11, F, ea,1,5,32,132,60,2,1,1013.89,1010.21,3.68, 
109,11, F, ea,1,7,0,132,61,2,0,0,0,0, 
109,11, F, ea,1,5,32,132,62,2,1,948.76,944.85,3.92, 
109,11, F, ea,2,3,0,132,63,2,1,0,0,0, 
109,11, F, ea,1,7,32,132,64,2,1,1180.77,1177.05,3.72, 
109,11, F, ea,1,7,32,132,65,2,1,422.58,418.76,3.82, 
109,11, F, ea,1,6,32,132,66,2,1,294.19,290.61,3.58, 
109,11, F, ea,2,3,32,132,67,2,0,314.18,310.21,3.97, 
109,11, F, ea,1,9,32,132,68,2,1,317.89,311.23,6.65, 
109,11, F, ea,1,1,32,132,69,2,1,73.71,70.19,3.53, 
109,11, F, ea,1,5,32,132,70,2,1,261.82,258.52,3.3, 
109,11, F, ea,1,4,32,132,71,2,1,530.09,525.91,4.18, 
109,11, F, ea,2,3,0,132,72,2,1,0,0,0, 
109,11, F, ea,1,2,32,132,73,2,1,551.24,547.71,3.53, 
109,11, F, ea,1,2,32,132,74,2,1,704.56,701.18,3.38, 
109,11, F, ea,1,1,32,132,75,2,1,1042.93,1034.3,8.63, 
109,11, F, ea,1,4,32,132,76,2,1,181.4,177.94,3.47, 
109,11, F, ea,1,1,32,132,77,2,1,845.79,842.16,3.63, 
109,11, F, ea,3,111,97,132,78,2,999,2440.33,2437.01,3.32, 
109,11, F, ea,1,4,0,132,79,2,0,0,0,0, 
109,11, F, ea,1,6,32,132,80,2,1,468.47,464.95,3.51, 
109,11, F, ea,1,8,32,132,81,2,1,320.7,316.96,3.75, 
109,11, F, ea,1,2,32,132,82,2,1,337.84,334.16,3.68, 
109,11, F, ea,1,8,32,132,83,2,1,385.49,381.9,3.59, 
109,11, F, ea,2,3,32,132,84,2,0,316.88,313.05,3.83, 
109,11, F, ea,1,8,32,132,85,2,1,373.97,370.61,3.36, 
109,11, F, ea,1,5,32,132,86,2,1,356.78,353.11,3.68, 
109,11, F, ea,1,4,32,132,87,2,1,242.01,238.17,3.83, 
109,11, F, ea,1,8,32,132,88,2,1,287.74,284.26,3.47, 
109,11, F, ea,1,5,32,132,89,2,1,248.88,245.44,3.45, 
109,11, F, ea,1,6,32,132,90,2,1,327.53,318.95,8.58, 
109,11, F, ea,2,3,32,132,91,2,0,476.13,472.07,4.06, 
109,11, F, ea,1,4,32,132,92,2,1,567.34,563.71,3.62, 
109,11, F, ea,1,4,32,132,93,2,1,641.91,638.14,3.78, 
109,11, F, ea,1,7,32,132,94,2,1,626.14,622.06,4.09, 
109,11, F, ea,1,7,32,132,95,2,1,601.63,598.12,3.51, 
109,11, F, ea,1,1,32,132,96,2,1,499.9,496.39,3.52, 
109,11, F, ea,1,6,32,132,97,2,1,397.88,394.44,3.44, 
109,11, F, ea,1,1,32,132,98,2,1,253.77,249.92,3.84, 
109,11, F, ea,1,8,32,132,99,2,1,361.3,357.8,3.49, 
109,11, F, ea,2,3,0,132,100,2,1,0,0,0, 
109,11, F, ea,1,6,32,132,101,2,1,555.33,551.75,3.57, 
109,11, F, ea,1,2,32,132,102,2,1,426.14,419.18,6.96, 
109,11, F, ea,1,1,32,132,103,2,1,324.65,316.13,8.53, 
109,11, F, ea,1,6,32,132,104,2,1,391.26,387.85,3.41, 
109,11, F, ea,1,7,32,132,105,2,1,521.42,517.93,3.49, 
109,11, F, ea,1,9,32,132,106,2,1,596.06,592.64,3.42, 
109,11, F, ea,1,1,32,132,107,2,1,579.58,576,3.58, 
109,11, F, ea,1,1,32,132,108,2,1,444.09,440.16,3.93, 
109,11, F, ea,1,9,32,132,109,2,1,480.13,476.77,3.35, 
109,11, F, ea,2,3,0,132,110,2,1,0,0,0, 
109,11, F, ea,1,9,32,132,111,2,1,1016.4,1012.79,3.61, 
109,11, F, ea,1,6,32,132,112,2,1,336.52,332.81,3.71, 
109,11, F, ea,1,9,32,132,113,2,1,268.02,264.46,3.57, 
109,11, F, ea,1,4,32,132,114,2,1,309.41,305.9,3.51, 
109,11, F, ea,1,8,32,132,115,2,1,720.28,716.99,3.29, 
109,11, F, ea,1,2,32,132,116,2,1,456.68,453.11,3.58, 
109,11, F, ea,1,1,32,132,117,2,1,362.24,358.65,3.59, 
109,11, F, ea,1,4,32,132,118,2,1,548.27,544.68,3.59, 
109,11, F, ea,1,7,32,132,119,2,1,395.32,391.91,3.41, 
109,11, F, ea,1,4,32,132,120,2,1,278.27,274.79,3.49, 
109,11, F, ea,1,5,32,132,121,2,1,382.68,378.79,3.89, 
109,11, F, ea,3,111,97,132,122,2,999,7016,7012.05,3.94, 
109,11, F, ea,1,7,32,132,123,2,1,641.96,638.27,3.68, 
109,11, F, ea,1,5,32,132,124,2,1,642.47,638.32,4.15, 
109,11, F, ea,1,5,32,132,125,2,1,644,640.41,3.6, 
109,11, F, ea,1,8,32,132,126,2,1,446.69,443.19,3.5, 
109,11, F, ea,1,2,32,132,127,2,1,496.54,492.95,3.59, 
109,11, F, ea,1,4,32,132,128,2,1,504.93,501.33,3.6, 
109,11, F, ea,1,6,32,132,129,2,1,430.61,423.02,7.6, 
109,11, F, ea,1,1,32,132,130,2,1,357.58,354.19,3.39, 
109,11, F, ea,1,9,32,132,131,2,1,324.2,315.9,8.3, 
110,15, F, mid,1,6,32,132,1,1,1,1019.98,1016.67,3.31, 
110,15, F, mid,1,6,0,132,2,1,0,0,0,0, 
110,15, F, mid,2,3,0,132,3,1,1,0,0,0, 
110,15, F, mid,1,2,32,132,4,1,1,307.41,304.3,3.11, 
110,15, F, mid,1,9,32,132,5,1,1,552.04,549.19,2.85, 
110,15, F, mid,1,6,32,132,6,1,1,546.14,543.24,2.9, 
110,15, F, mid,1,1,32,132,7,1,1,308.06,305.11,2.96, 
110,15, F, mid,1,5,32,132,8,1,1,321.65,318.19,3.47, 
110,15, F, mid,1,4,32,132,9,1,1,295.2,288.4,6.8, 
110,15, F, mid,1,4,32,132,10,1,1,383.99,379.19,4.8, 
110,15, F, mid,1,4,32,132,11,1,1,298.3,293.42,4.88, 
110,15, F, mid,1,1,32,132,12,1,1,691.89,688.7,3.19, 
110,15, F, mid,1,7,32,132,13,1,1,1006.44,1003.69,2.76, 
110,15, F, mid,1,9,32,132,14,1,1,684.99,677.84,7.15, 
110,15, F, mid,1,7,32,132,15,1,1,621.71,618.69,3.02, 
110,15, F, mid,2,3,0,132,16,1,1,0,0,0, 
110,15, F, mid,1,5,32,132,17,1,1,310.54,305.59,4.94, 
110,15, F, mid,1,2,32,132,18,1,1,878.63,875.81,2.82, 
110,15, F, mid,1,9,32,132,19,1,1,655.98,652.88,3.1, 
110,15, F, mid,2,3,0,132,20,1,1,0,0,0, 
110,15, F, mid,1,1,32,132,21,1,1,578.54,574.44,4.1, 
110,15, F, mid,1,4,32,132,22,1,1,570.75,567.71,3.04, 
110,15, F, mid,1,2,32,132,23,1,1,475.66,472.77,2.89, 
110,15, F, mid,1,2,32,132,24,1,1,392.34,388.18,4.15, 
110,15, F, mid,1,1,32,132,25,1,1,379.32,375.75,3.57, 
110,15, F, mid,1,8,32,132,26,1,1,280.91,275.67,5.24, 
110,15, F, mid,1,8,32,132,27,1,1,260.95,256.13,4.82, 
110,15, F, mid,1,9,32,132,28,1,1,275.89,268.71,7.19, 
110,15, F, mid,1,4,32,132,29,1,1,622.24,618.82,3.42, 
110,15, F, mid,1,8,32,132,30,1,1,489.28,486.35,2.93, 
110,15, F, mid,1,8,32,132,31,1,1,508.73,505.9,2.83, 
110,15, F, mid,1,2,32,132,32,1,1,594.02,591.28,2.74, 
110,15, F, mid,2,3,0,132,33,1,1,0,0,0, 
110,15, F, mid,1,6,32,132,34,1,1,345.93,341.04,4.9, 
110,15, F, mid,1,6,32,132,35,1,1,273.68,269.52,4.15, 
110,15, F, mid,1,1,32,132,36,1,1,238.42,234.1,4.33, 
110,15, F, mid,1,2,32,132,37,1,1,211.77,207.09,4.67, 
110,15, F, mid,1,6,32,132,38,1,1,420.05,415.67,4.39, 
110,15, F, mid,1,2,32,132,39,1,1,469.48,466.51,2.97, 
110,15, F, mid,1,5,32,132,40,1,1,561.38,558.1,3.27, 
110,15, F, mid,2,3,0,132,41,1,1,0,0,0, 
110,15, F, mid,1,2,32,132,42,1,1,614.38,611.52,2.86, 
110,15, F, mid,1,5,32,132,43,1,1,497.48,494.45,3.03, 
110,15, F, mid,1,7,32,132,44,1,1,435.07,427.81,7.26, 
110,15, F, mid,2,3,32,132,45,1,0,330.61,327.68,2.93, 
110,15, F, mid,1,4,32,132,46,1,1,346.55,336,10.55, 
110,15, F, mid,1,9,32,132,47,1,1,243.43,231.62,11.81, 
110,15, F, mid,1,2,32,132,48,1,1,242.64,238.5,4.14, 
110,15, F, mid,1,5,32,132,49,1,1,203.45,196.56,6.89, 
110,15, F, mid,1,4,32,132,50,1,1,438.87,435.71,3.16, 
110,15, F, mid,3,111,99,132,51,1,999,9458.05,9455.2,2.85, 
110,15, F, mid,1,2,32,132,52,1,1,1236.71,1233.52,3.19, 
110,15, F, mid,1,8,32,132,53,1,1,713.83,709.78,4.05, 
110,15, F, mid,1,7,32,132,54,1,1,563.83,560.73,3.11, 
110,15, F, mid,1,1,32,132,55,1,1,317.32,310.51,6.8, 
110,15, F, mid,1,7,32,132,56,1,1,490.98,487.56,3.43, 
110,15, F, mid,1,6,32,132,57,1,1,611.66,608.68,2.97, 
110,15, F, mid,1,6,32,132,58,1,1,663.89,660.85,3.04, 
110,15, F, mid,1,5,32,132,59,1,1,499.39,496.12,3.27, 
110,15, F, mid,1,1,32,132,60,1,1,665.36,661.24,4.11, 
110,15, F, mid,1,8,32,132,61,1,1,279.07,272.14,6.93, 
110,15, F, mid,1,8,32,132,62,1,1,907.35,904.4,2.95, 
110,15, F, mid,2,3,0,132,63,1,1,0,0,0, 
110,15, F, mid,1,5,32,132,64,1,1,259.68,256.86,2.82, 
110,15, F, mid,1,8,32,132,65,1,1,302.29,298.04,4.25, 
110,15, F, mid,1,6,32,132,66,1,1,331.62,328.72,2.9, 
110,15, F, mid,3,111,98,132,67,1,999,6316.33,6313.32,3, 
110,15, F, mid,1,9,32,132,68,1,1,511.48,507.07,4.41, 
110,15, F, mid,1,1,32,132,69,1,1,311.92,307.88,4.05, 
110,15, F, mid,1,6,32,132,70,1,1,734.93,727.31,7.62, 
110,15, F, mid,1,5,32,132,71,1,1,495.55,491.72,3.83, 
110,15, F, mid,1,7,32,132,72,1,1,305.88,301.73,4.14, 
110,15, F, mid,1,5,32,132,73,1,1,511.16,504.33,6.83, 
110,15, F, mid,2,3,0,132,74,1,1,0,0,0, 
110,15, F, mid,1,9,32,132,75,1,1,296.68,293.96,2.72, 
110,15, F, mid,1,9,32,132,76,1,1,532.9,525.29,7.62, 
110,15, F, mid,1,9,32,132,77,1,1,306.6,302.56,4.04, 
110,15, F, mid,1,1,32,132,78,1,1,14.1,0.82,13.28, 
110,15, F, mid,1,7,32,132,79,1,1,446.24,440.78,5.45, 
110,15, F, mid,1,5,32,132,80,1,1,307.37,303.29,4.08, 
110,15, F, mid,1,7,32,132,81,1,1,315.31,307,8.31, 
110,15, F, mid,1,1,32,132,82,1,1,583.19,580.1,3.09, 
110,15, F, mid,1,7,32,132,83,1,1,293.78,286.77,7.01, 
110,15, F, mid,1,4,32,132,84,1,1,348.08,341.09,6.99, 
110,15, F, mid,1,9,32,132,85,1,1,271.48,268.31,3.17, 
110,15, F, mid,1,7,32,132,86,1,1,454.96,439.64,15.32, 
110,15, F, mid,1,9,32,132,87,1,1,350.34,345.79,4.56, 
110,15, F, mid,1,9,32,132,88,1,1,416.73,413.69,3.03, 
110,15, F, mid,1,7,32,132,89,1,1,349.05,344.86,4.19, 
110,15, F, mid,1,9,32,132,90,1,1,503.38,500.43,2.96, 
110,15, F, mid,1,4,32,132,91,1,1,904.58,901.41,3.17, 
110,15, F, mid,3,111,98,132,92,1,999,2412.16,2409.44,2.72, 
110,15, F, mid,1,2,32,132,93,1,1,498.21,495.35,2.85, 
110,15, F, mid,1,4,32,132,94,1,1,524.35,521.44,2.91, 
110,15, F, mid,2,3,0,132,95,1,1,0,0,0, 
110,15, F, mid,1,5,32,132,96,1,1,573.85,570.74,3.12, 
110,15, F, mid,1,6,32,132,97,1,1,452.51,445.43,7.08, 
110,15, F, mid,1,7,32,132,98,1,1,553.1,550.16,2.94, 
110,15, F, mid,2,3,32,132,99,1,0,364.05,357.08,6.97, 
110,15, F, mid,1,7,32,132,100,1,1,734.32,731,3.33, 
110,15, F, mid,1,1,32,132,101,1,1,326.78,319.31,7.47, 
110,15, F, mid,1,5,32,132,102,1,1,286.44,281.67,4.77, 
110,15, F, mid,2,3,32,132,103,1,0,288.8,285.73,3.07, 
110,15, F, mid,1,2,32,132,104,1,1,643.34,640.26,3.08, 
110,15, F, mid,1,8,0,132,105,1,0,0,0,0, 
110,15, F, mid,1,4,32,132,106,1,1,627.39,623.38,4.01, 
110,15, F, mid,2,3,0,132,107,1,1,0,0,0, 
110,15, F, mid,1,8,32,132,108,1,1,271.53,267.37,4.16, 
110,15, F, mid,1,7,32,132,109,1,1,544.14,541.4,2.75, 
110,15, F, mid,1,2,32,132,110,1,1,334.28,331,3.29, 
110,15, F, mid,3,111,100,132,111,1,999,4656.56,4653.44,3.12, 
110,15, F, mid,1,5,0,132,112,1,0,0,0,0, 
110,15, F, mid,1,1,32,132,113,1,1,538.14,529.63,8.51, 
110,15, F, mid,3,111,97,132,114,1,999,3327.84,3325.15,2.7, 
110,15, F, mid,1,4,32,132,115,1,1,637.71,634.58,3.13, 
110,15, F, mid,1,8,32,132,116,1,1,660.51,657.72,2.78, 
110,15, F, mid,2,3,32,132,117,1,0,437.74,429.53,8.21, 
110,15, F, mid,1,5,32,132,118,1,1,476.92,472.89,4.04, 
110,15, F, mid,1,6,32,132,119,1,1,548.36,545.39,2.97, 
110,15, F, mid,1,4,32,132,120,1,1,663.44,660.67,2.77, 
110,15, F, mid,1,6,32,132,121,1,1,818.26,815.29,2.98, 
110,15, F, mid,1,1,32,132,122,1,1,830.44,827.12,3.32, 
110,15, F, mid,1,8,32,132,123,1,1,769.54,766.71,2.83, 
110,15, F, mid,1,4,32,132,124,1,1,587.84,584.73,3.11, 
110,15, F, mid,1,1,32,132,125,1,1,541.55,537.32,4.24, 
110,15, F, mid,1,6,32,132,126,1,1,460.6,456.49,4.11, 
110,15, F, mid,1,2,32,132,127,1,1,356.81,353.85,2.96, 
110,15, F, mid,2,3,0,132,128,1,1,0,0,0, 
110,15, F, mid,1,8,32,132,129,1,1,273.79,266.68,7.12, 
110,15, F, mid,1,8,32,132,130,1,1,308.43,301.34,7.08, 
110,15, F, mid,1,9,32,132,131,1,1,541.26,536.61,4.64, 
110,15, F, mid,1,9,32,132,1,2,1,4.3,0.2,4.1, 
110,15, F, mid,1,8,32,132,2,2,1,321.16,317.44,3.71, 
110,15, F, mid,1,8,32,132,3,2,1,1177.75,1175.04,2.71, 
110,15, F, mid,1,2,32,132,4,2,1,355.51,348.22,7.29, 
110,15, F, mid,1,9,32,132,5,2,1,270.51,263.61,6.9, 
110,15, F, mid,1,9,32,132,6,2,1,876.84,873.95,2.88, 
110,15, F, mid,2,3,32,132,7,2,0,387.96,380.81,7.15, 
110,15, F, mid,1,2,0,132,8,2,0,0,0,0, 
110,15, F, mid,1,2,32,132,9,2,1,804.72,801.89,2.83, 
110,15, F, mid,1,2,32,132,10,2,1,343.03,340.28,2.75, 
110,15, F, mid,1,6,32,132,11,2,1,336.87,329.51,7.36, 
110,15, F, mid,3,111,99,132,12,2,999,5864.88,5857.56,7.31, 
110,15, F, mid,1,8,32,132,13,2,1,616.81,612.88,3.93, 
110,15, F, mid,1,2,32,132,14,2,1,451.28,447.87,3.41, 
110,15, F, mid,1,6,32,132,15,2,1,566.96,564.21,2.76, 
110,15, F, mid,1,8,32,132,16,2,1,363.9,360.28,3.62, 
110,15, F, mid,1,1,32,132,17,2,1,353.58,348.88,4.7, 
110,15, F, mid,2,3,0,132,18,2,1,0,0,0, 
110,15, F, mid,1,2,32,132,19,2,1,13.73,0.83,12.9, 
110,15, F, mid,1,1,32,132,20,2,1,972.21,969.36,2.85, 
110,15, F, mid,1,6,32,132,21,2,1,759.13,756.3,2.82, 
110,15, F, mid,1,9,32,132,22,2,1,466.89,464.06,2.82, 
110,15, F, mid,1,7,32,132,23,2,1,559.16,556.42,2.74, 
110,15, F, mid,2,3,32,132,24,2,0,250.58,246.59,3.99, 
110,15, F, mid,1,6,32,132,25,2,1,1165.75,1162.95,2.79, 
110,15, F, mid,1,6,32,132,26,2,1,712.05,709.02,3.03, 
110,15, F, mid,1,7,32,132,27,2,1,315.85,311.74,4.11, 
110,15, F, mid,1,6,32,132,28,2,1,13.93,0.82,13.11, 
110,15, F, mid,3,111,98,132,29,2,999,2496.13,2489.97,6.16, 
110,15, F, mid,1,5,32,132,30,2,1,596.92,592.67,4.24, 
110,15, F, mid,1,1,32,132,31,2,1,644.6,641.58,3.02, 
110,15, F, mid,1,8,32,132,32,2,1,506.8,503.79,3.01, 
110,15, F, mid,1,6,32,132,33,2,1,451.65,444.63,7.02, 
110,15, F, mid,1,9,32,132,34,2,1,234.61,226.2,8.41, 
110,15, F, mid,1,1,32,132,35,2,1,591.6,588.91,2.69, 
110,15, F, mid,1,8,32,132,36,2,1,700.68,697.71,2.97, 
110,15, F, mid,1,5,32,132,37,2,1,816.51,813.71,2.79, 
110,15, F, mid,3,111,100,132,38,2,999,4762.45,4759.48,2.97, 
110,15, F, mid,1,1,32,132,39,2,1,468.87,464.7,4.17, 
110,15, F, mid,1,9,32,132,40,2,1,444.94,435.39,9.55, 
110,15, F, mid,2,3,32,132,41,2,0,319.96,312.92,7.04, 
110,15, F, mid,1,9,32,132,42,2,1,13.91,0.82,13.09, 
110,15, F, mid,1,4,32,132,43,2,1,605.26,602.29,2.96, 
110,15, F, mid,1,4,32,132,44,2,1,527.34,524.29,3.05, 
110,15, F, mid,1,7,32,132,45,2,1,441.98,434.31,7.66, 
110,15, F, mid,1,7,32,132,46,2,1,398.5,395.64,2.86, 
110,15, F, mid,1,7,32,132,47,2,1,287.24,280.76,6.47, 
110,15, F, mid,1,7,32,132,48,2,1,429.74,426.39,3.35, 
110,15, F, mid,2,3,0,132,49,2,1,0,0,0, 
110,15, F, mid,1,6,32,132,50,2,1,307.98,305.32,2.66, 
110,15, F, mid,1,8,32,132,51,2,1,573.91,571.06,2.85, 
110,15, F, mid,1,9,32,132,52,2,1,618.02,615.1,2.92, 
110,15, F, mid,1,8,32,132,53,2,1,450.34,447.51,2.83, 
110,15, F, mid,2,3,0,132,54,2,1,0,0,0, 
110,15, F, mid,1,5,32,132,55,2,1,304.42,297.48,6.94, 
110,15, F, mid,1,9,32,132,56,2,1,444.86,441.84,3.02, 
110,15, F, mid,1,4,32,132,57,2,1,735.5,731.9,3.59, 
110,15, F, mid,1,5,32,132,58,2,1,372.1,369.29,2.81, 
110,15, F, mid,2,3,32,132,59,2,0,429.39,420.46,8.93, 
110,15, F, mid,1,1,32,132,60,2,1,13.72,0.84,12.87, 
110,15, F, mid,1,1,32,132,61,2,1,379.78,375.43,4.35, 
110,15, F, mid,1,1,32,132,62,2,1,487.3,484.61,2.69, 
110,15, F, mid,1,4,32,132,63,2,1,368.92,361.82,7.1, 
110,15, F, mid,1,6,32,132,64,2,1,349.08,346.04,3.04, 
110,15, F, mid,1,1,32,132,65,2,1,625.24,622.36,2.88, 
110,15, F, mid,1,4,32,132,66,2,1,546.62,540.43,6.19, 
110,15, F, mid,1,8,32,132,67,2,1,478.29,475.15,3.14, 
110,15, F, mid,1,2,32,132,68,2,1,552.38,548.87,3.51, 
110,15, F, mid,1,5,32,132,69,2,1,588.57,585.61,2.96, 
110,15, F, mid,1,6,32,132,70,2,1,748.66,744.47,4.19, 
110,15, F, mid,1,5,32,132,71,2,1,469.19,462.36,6.83, 
110,15, F, mid,2,3,0,132,72,2,1,0,0,0, 
110,15, F, mid,1,7,32,132,73,2,1,432.64,428.21,4.43, 
110,15, F, mid,1,7,32,132,74,2,1,930.11,927.3,2.81, 
110,15, F, mid,1,9,32,132,75,2,1,895.5,892.49,3.01, 
110,15, F, mid,2,3,0,132,76,2,1,0,0,0, 
110,15, F, mid,1,4,32,132,77,2,1,356.57,352.33,4.23, 
110,15, F, mid,1,9,32,132,78,2,1,823.25,820.49,2.75, 
110,15, F, mid,1,5,32,132,79,2,1,570.38,567.58,2.8, 
110,15, F, mid,2,3,0,132,80,2,1,0,0,0, 
110,15, F, mid,1,5,32,132,81,2,1,280.64,276.61,4.03, 
110,15, F, mid,1,5,32,132,82,2,1,248.82,241.84,6.98, 
110,15, F, mid,1,6,32,132,83,2,1,894.17,891.22,2.96, 
110,15, F, mid,3,111,99,132,84,2,999,5346.4,5343.57,2.83, 
110,15, F, mid,1,6,32,132,85,2,1,513.7,510.99,2.71, 
110,15, F, mid,1,2,32,132,86,2,1,462.94,459.78,3.16, 
110,15, F, mid,1,8,32,132,87,2,1,709.35,704.17,5.17, 
110,15, F, mid,1,4,32,132,88,2,1,689.95,685.97,3.99, 
110,15, F, mid,1,7,32,132,89,2,1,405.95,402.82,3.13, 
110,15, F, mid,1,9,32,132,90,2,1,204.37,197.94,6.43, 
110,15, F, mid,1,1,32,132,91,2,1,13.75,0.83,12.92, 
110,15, F, mid,1,5,32,132,92,2,1,510.89,508.06,2.82, 
110,15, F, mid,1,5,32,132,93,2,1,760.38,757.11,3.27, 
110,15, F, mid,1,4,32,132,94,2,1,894.49,890.45,4.03, 
110,15, F, mid,1,1,32,132,95,2,1,302.89,299.8,3.08, 
110,15, F, mid,1,1,32,132,96,2,1,449.68,446.83,2.85, 
110,15, F, mid,1,2,32,132,97,2,1,996.47,993.56,2.92, 
110,15, F, mid,1,5,32,132,98,2,1,809.9,807.15,2.75, 
110,15, F, mid,2,3,0,132,99,2,1,0,0,0, 
110,15, F, mid,1,2,32,132,100,2,1,343.53,339.22,4.31, 
110,15, F, mid,1,8,32,132,101,2,1,556.67,552.41,4.26, 
110,15, F, mid,1,8,32,132,102,2,1,694.01,690.89,3.12, 
110,15, F, mid,1,8,32,132,103,2,1,696.84,693.89,2.95, 
110,15, F, mid,1,6,32,132,104,2,1,673.89,667.03,6.86, 
110,15, F, mid,1,4,32,132,105,2,1,554.72,548.19,6.52, 
110,15, F, mid,1,7,32,132,106,2,1,400.79,397.75,3.03, 
110,15, F, mid,1,4,32,132,107,2,1,300.83,297.75,3.08, 
110,15, F, mid,1,7,32,132,108,2,1,375.59,372.74,2.85, 
110,15, F, mid,3,111,97,132,109,2,999,2923.03,2920.2,2.83, 
110,15, F, mid,1,2,32,132,110,2,1,411.23,408.32,2.91, 
110,15, F, mid,1,4,32,132,111,2,1,457.25,452.73,4.52, 
110,15, F, mid,1,7,32,132,112,2,1,481.67,478.79,2.88, 
110,15, F, mid,1,4,32,132,113,2,1,598.01,593.95,4.06, 
110,15, F, mid,1,4,32,132,114,2,1,678.89,676.18,2.71, 
110,15, F, mid,1,1,32,132,115,2,1,410.34,405.96,4.39, 
110,15, F, mid,1,1,32,132,116,2,1,674.87,667.41,7.46, 
110,15, F, mid,1,7,32,132,117,2,1,586.26,583.64,2.62, 
110,15, F, mid,2,3,32,132,118,2,0,407.3,399.73,7.58, 
110,15, F, mid,1,2,32,132,119,2,1,13.68,0.83,12.86, 
110,15, F, mid,1,4,32,132,120,2,1,360.66,357.53,3.13, 
110,15, F, mid,1,6,32,132,121,2,1,381.11,377.21,3.9, 
110,15, F, mid,1,9,32,132,122,2,1,256.91,252.75,4.16, 
110,15, F, mid,1,7,32,132,123,2,1,393.04,390.23,2.81, 
110,15, F, mid,1,9,32,132,124,2,1,709.77,707.01,2.77, 
110,15, F, mid,1,5,32,132,125,2,1,496.58,493.7,2.88, 
110,15, F, mid,2,3,0,132,126,2,1,0,0,0, 
110,15, F, mid,1,2,32,132,127,2,1,282.15,275.35,6.8, 
110,15, F, mid,1,5,32,132,128,2,1,408.16,405.4,2.76, 
110,15, F, mid,1,8,32,132,129,2,1,458.54,455.6,2.94, 
110,15, F, mid,2,3,0,132,130,2,1,0,0,0, 
110,15, F, mid,1,2,32,132,131,2,1,546.36,543.19,3.17, 
111,12, F, ea,1,6,32,132,1,1,1,592.58,589.52,3.06, 
111,12, F, ea,1,1,32,132,2,1,1,580.06,577.32,2.74, 
111,12, F, ea,1,9,32,132,3,1,1,432.23,429.41,2.82, 
111,12, F, ea,1,6,32,132,4,1,1,404.21,399.55,4.66, 
111,12, F, ea,1,6,32,132,5,1,1,565.9,562.94,2.96, 
111,12, F, ea,2,3,0,132,6,1,1,0,0,0, 
111,12, F, ea,1,1,32,132,7,1,1,429.81,425.31,4.5, 
111,12, F, ea,1,7,32,132,8,1,1,367,362.76,4.24, 
111,12, F, ea,1,4,32,132,9,1,1,689.69,686.97,2.71, 
111,12, F, ea,1,7,32,132,10,1,1,612.71,609.79,2.92, 
111,12, F, ea,1,8,32,132,11,1,1,701.44,698.61,2.83, 
111,12, F, ea,1,8,32,132,12,1,1,762.41,759.65,2.77, 
111,12, F, ea,1,6,32,132,13,1,1,553.22,549.04,4.18, 
111,12, F, ea,2,3,0,132,14,1,1,0,0,0, 
111,12, F, ea,1,4,32,132,15,1,1,505.62,502.46,3.16, 
111,12, F, ea,1,7,32,132,16,1,1,550.38,546.62,3.76, 
111,12, F, ea,1,8,32,132,17,1,1,404.35,400.18,4.17, 
111,12, F, ea,1,7,32,132,18,1,1,373.36,370.56,2.8, 
111,12, F, ea,3,111,99,132,19,1,999,27621.76,27619.36,2.4, 
111,12, F, ea,1,9,32,132,20,1,1,734.97,731.56,3.41, 
111,12, F, ea,1,2,32,132,21,1,1,417.54,414.77,2.76, 
111,12, F, ea,1,4,32,132,22,1,1,444.4,441.77,2.62, 
111,12, F, ea,2,3,0,132,23,1,1,0,0,0, 
111,12, F, ea,1,8,32,132,24,1,1,577.35,574.62,2.73, 
111,12, F, ea,1,7,32,132,25,1,1,608.46,604.47,3.99, 
111,12, F, ea,1,6,32,132,26,1,1,666.27,651.22,15.05, 
111,12, F, ea,1,6,32,132,27,1,1,526.91,519.67,7.24, 
111,12, F, ea,1,8,32,132,28,1,1,528.78,525.44,3.34, 
111,12, F, ea,1,1,32,132,29,1,1,565.83,561.31,4.52, 
111,12, F, ea,1,6,32,132,30,1,1,565,562.25,2.74, 
111,12, F, ea,1,6,32,132,31,1,1,673.77,670.76,3.02, 
111,12, F, ea,1,4,32,132,32,1,1,787.95,784.91,3.04, 
111,12, F, ea,1,7,32,132,33,1,1,805.33,802.52,2.81, 
111,12, F, ea,2,3,0,132,34,1,1,0,0,0, 
111,12, F, ea,1,4,32,132,35,1,1,602.96,599.52,3.44, 
111,12, F, ea,1,5,32,132,36,1,1,364.45,357.72,6.73, 
111,12, F, ea,1,4,32,132,37,1,1,570.16,567.39,2.77, 
111,12, F, ea,1,2,32,132,38,1,1,614.36,611.62,2.73, 
111,12, F, ea,1,8,32,132,39,1,1,457.17,454.35,2.82, 
111,12, F, ea,2,3,0,132,40,1,1,0,0,0, 
111,12, F, ea,1,5,32,132,41,1,1,744.92,742.27,2.65, 
111,12, F, ea,1,5,32,132,42,1,1,400.7,397.85,2.85, 
111,12, F, ea,1,5,32,132,43,1,1,461.1,458.37,2.73, 
111,12, F, ea,3,111,98,132,44,1,999,2526.61,2523.85,2.77, 
111,12, F, ea,1,1,32,132,45,1,1,687.83,685.09,2.74, 
111,12, F, ea,1,8,32,132,46,1,1,619.6,615.04,4.57, 
111,12, F, ea,2,3,0,132,47,1,1,0,0,0, 
111,12, F, ea,1,8,32,132,48,1,1,708,703.25,4.75, 
111,12, F, ea,1,1,32,132,49,1,1,541.44,537,4.44, 
111,12, F, ea,1,6,32,132,50,1,1,485.75,482.02,3.73, 
111,12, F, ea,3,111,97,132,51,1,999,2312.16,2309.19,2.97, 
111,12, F, ea,1,4,32,132,52,1,1,475.82,471.72,4.11, 
111,12, F, ea,1,7,32,132,53,1,1,453.66,450.7,2.96, 
111,12, F, ea,1,4,32,132,54,1,1,391.78,388.8,2.98, 
111,12, F, ea,2,3,0,132,55,1,1,0,0,0, 
111,12, F, ea,1,1,32,132,56,1,1,389.66,386.83,2.83, 
111,12, F, ea,1,7,32,132,57,1,1,465.83,461.87,3.96, 
111,12, F, ea,1,1,32,132,58,1,1,461.24,458.51,2.74, 
111,12, F, ea,1,9,32,132,59,1,1,362.59,357.89,4.69, 
111,12, F, ea,1,7,32,132,60,1,1,298.37,293.87,4.51, 
111,12, F, ea,1,8,32,132,61,1,1,353.01,348.7,4.3, 
111,12, F, ea,1,4,32,132,62,1,1,431.6,424.03,7.57, 
111,12, F, ea,1,6,32,132,63,1,1,540.28,537.51,2.78, 
111,12, F, ea,2,3,0,132,64,1,1,0,0,0, 
111,12, F, ea,1,4,32,132,65,1,1,400.16,397.12,3.05, 
111,12, F, ea,1,9,32,132,66,1,1,524.3,521.02,3.28, 
111,12, F, ea,1,6,32,132,67,1,1,574.26,571.32,2.94, 
111,12, F, ea,1,9,32,132,68,1,1,969.99,967.03,2.96, 
111,12, F, ea,1,9,32,132,69,1,1,661.87,658.93,2.94, 
111,12, F, ea,1,5,32,132,70,1,1,656.99,654.3,2.69, 
111,12, F, ea,1,1,32,132,71,1,1,590.3,586.23,4.06, 
111,12, F, ea,1,2,32,132,72,1,1,631.36,628.18,3.18, 
111,12, F, ea,1,5,32,132,73,1,1,920.77,917.73,3.04, 
111,12, F, ea,1,4,32,132,74,1,1,668.4,665.38,3.02, 
111,12, F, ea,1,2,32,132,75,1,1,496.11,493.26,2.85, 
111,12, F, ea,2,3,0,132,76,1,1,0,0,0, 
111,12, F, ea,1,9,32,132,77,1,1,375.03,372.01,3.02, 
111,12, F, ea,1,8,32,132,78,1,1,389.3,385.18,4.11, 
111,12, F, ea,1,6,32,132,79,1,1,328.94,326.26,2.68, 
111,12, F, ea,1,7,32,132,80,1,1,365.61,362.6,3.01, 
111,12, F, ea,1,5,32,132,81,1,1,326.76,319.37,7.39, 
111,12, F, ea,1,2,32,132,82,1,1,377.49,373.11,4.38, 
111,12, F, ea,1,1,32,132,83,1,1,384.37,381.38,2.99, 
111,12, F, ea,1,9,32,132,84,1,1,433.89,430.74,3.15, 
111,12, F, ea,1,4,32,132,85,1,1,540.09,529.78,10.31, 
111,12, F, ea,2,3,0,132,86,1,1,0,0,0, 
111,12, F, ea,1,5,32,132,87,1,1,618.72,615.77,2.95, 
111,12, F, ea,1,9,32,132,88,1,1,428.23,421.48,6.75, 
111,12, F, ea,1,4,32,132,89,1,1,387.66,384.42,3.24, 
111,12, F, ea,1,2,32,132,90,1,1,348.89,346.28,2.61, 
111,12, F, ea,1,9,32,132,91,1,1,425.6,422.28,3.31, 
111,12, F, ea,1,2,32,132,92,1,1,441.59,438.94,2.65, 
111,12, F, ea,1,4,32,132,93,1,1,399.53,395.08,4.45, 
111,12, F, ea,1,5,32,132,94,1,1,481.29,478.71,2.58, 
111,12, F, ea,3,111,97,132,95,1,999,1637.45,1634.45,3, 
111,12, F, ea,1,2,32,132,96,1,1,694.72,692.01,2.71, 
111,12, F, ea,1,9,32,132,97,1,1,323.57,319.12,4.45, 
111,12, F, ea,1,6,32,132,98,1,1,382.1,378.99,3.11, 
111,12, F, ea,1,7,32,132,99,1,1,343.19,340.35,2.85, 
111,12, F, ea,1,1,32,132,100,1,1,500.91,498.08,2.83, 
111,12, F, ea,2,3,0,132,101,1,1,0,0,0, 
111,12, F, ea,1,2,32,132,102,1,1,491.01,486.48,4.53, 
111,12, F, ea,1,9,32,132,103,1,1,332.68,329.68,3, 
111,12, F, ea,1,8,32,132,104,1,1,382.41,379.64,2.76, 
111,12, F, ea,1,1,32,132,105,1,1,677.02,672.85,4.18, 
111,12, F, ea,1,8,32,132,106,1,1,615.47,611.35,4.13, 
111,12, F, ea,1,5,32,132,107,1,1,402.6,398.66,3.94, 
111,12, F, ea,1,9,32,132,108,1,1,363.28,360.41,2.87, 
111,12, F, ea,2,3,32,132,109,1,0,376.1,371.96,4.14, 
111,12, F, ea,1,2,32,132,110,1,1,436.13,429.62,6.52, 
111,12, F, ea,1,2,32,132,111,1,1,484.84,481.89,2.95, 
111,12, F, ea,1,7,32,132,112,1,1,832.95,830.02,2.93, 
111,12, F, ea,1,5,32,132,113,1,1,626.99,624.24,2.75, 
111,12, F, ea,1,8,32,132,114,1,1,424.5,418.05,6.45, 
111,12, F, ea,2,3,0,132,115,1,1,0,0,0, 
111,12, F, ea,1,5,32,132,116,1,1,452.61,449.73,2.88, 
111,12, F, ea,1,2,32,132,117,1,1,457.29,452.72,4.57, 
111,12, F, ea,1,7,32,132,118,1,1,481.73,478.87,2.86, 
111,12, F, ea,1,7,32,132,119,1,1,556.43,553.7,2.73, 
111,12, F, ea,1,1,32,132,120,1,1,496.53,491.89,4.64, 
111,12, F, ea,1,5,32,132,121,1,1,410.21,406.91,3.3, 
111,12, F, ea,1,5,32,132,122,1,1,455.69,453.01,2.68, 
111,12, F, ea,2,3,0,132,123,1,1,0,0,0, 
111,12, F, ea,1,2,32,132,124,1,1,340.95,337.85,3.11, 
111,12, F, ea,1,1,32,132,125,1,1,400.34,397.37,2.97, 
111,12, F, ea,1,6,32,132,126,1,1,547.75,545.05,2.69, 
111,12, F, ea,1,8,32,132,127,1,1,654.42,651.65,2.77, 
111,12, F, ea,1,1,32,132,128,1,1,673.4,670.76,2.64, 
111,12, F, ea,1,2,32,132,129,1,1,573.33,570.4,2.93, 
111,12, F, ea,3,111,97,132,130,1,999,1567.88,1564.79,3.09, 
111,12, F, ea,1,9,32,132,131,1,1,644.15,641.13,3.03, 
111,12, F, ea,1,7,32,132,1,2,1,4.09,0.17,3.92, 
111,12, F, ea,1,2,32,132,2,2,1,420.42,416.21,4.22, 
111,12, F, ea,1,4,32,132,3,2,1,317.02,313.97,3.05, 
111,12, F, ea,1,7,32,132,4,2,1,332.67,325.24,7.43, 
111,12, F, ea,3,111,98,132,5,2,999,1450.06,1447.1,2.96, 
111,12, F, ea,1,8,32,132,6,2,1,445.22,442.46,2.76, 
111,12, F, ea,1,2,32,132,7,2,1,296.39,289.62,6.77, 
111,12, F, ea,1,5,32,132,8,2,1,678.28,673.78,4.5, 
111,12, F, ea,1,1,32,132,9,2,1,775.54,772.57,2.97, 
111,12, F, ea,1,7,32,132,10,2,1,944.71,941.77,2.94, 
111,12, F, ea,1,4,32,132,11,2,1,1196,1193.11,2.89, 
111,12, F, ea,1,5,32,132,12,2,1,482.08,478.07,4.01, 
111,12, F, ea,1,8,32,132,13,2,1,355.51,352.5,3.01, 
111,12, F, ea,1,6,32,132,14,2,1,399.43,394.98,4.45, 
111,12, F, ea,1,6,32,132,15,2,1,403.22,398.63,4.6, 
111,12, F, ea,1,9,32,132,16,2,1,373.36,369.37,3.98, 
111,12, F, ea,2,3,0,132,17,2,1,0,0,0, 
111,12, F, ea,1,2,32,132,18,2,1,773.41,768.94,4.46, 
111,12, F, ea,1,7,32,132,19,2,1,549.35,546.37,2.98, 
111,12, F, ea,1,7,32,132,20,2,1,366.96,364.01,2.95, 
111,12, F, ea,1,4,0,132,21,2,0,0,0,0, 
111,12, F, ea,2,3,0,132,22,2,1,0,0,0, 
111,12, F, ea,1,5,0,132,23,2,0,0,0,0, 
111,12, F, ea,1,5,0,132,24,2,0,0,0,0, 
111,12, F, ea,1,9,32,132,25,2,1,480.65,476.65,4, 
111,12, F, ea,1,5,32,132,26,2,1,523.52,519.14,4.38, 
111,12, F, ea,1,9,32,132,27,2,1,396.66,393.73,2.93, 
111,12, F, ea,1,4,32,132,28,2,1,315.74,311.28,4.45, 
111,12, F, ea,1,5,32,132,29,2,1,335.94,332.76,3.19, 
111,12, F, ea,1,2,32,132,30,2,1,381.93,379.09,2.83, 
111,12, F, ea,1,1,32,132,31,2,1,481.96,479.1,2.86, 
111,12, F, ea,3,111,97,132,32,2,999,1387.37,1384.44,2.93, 
111,12, F, ea,1,6,32,132,33,2,1,522.19,519.18,3.01, 
111,12, F, ea,1,2,32,132,34,2,1,276.57,272.16,4.41, 
111,12, F, ea,1,4,32,132,35,2,1,233.22,229.71,3.51, 
111,12, F, ea,1,9,32,132,36,2,1,272.51,269.73,2.79, 
111,12, F, ea,1,7,32,132,37,2,1,254.33,250.81,3.52, 
111,12, F, ea,1,9,32,132,38,2,1,346.07,341.97,4.1, 
111,12, F, ea,1,1,32,132,39,2,1,261.11,257.02,4.09, 
111,12, F, ea,1,1,32,132,40,2,1,325.09,317.41,7.68, 
111,12, F, ea,1,9,32,132,41,2,1,338.38,335.38,3, 
111,12, F, ea,1,5,32,132,42,2,1,478.12,474.05,4.07, 
111,12, F, ea,2,3,0,132,43,2,1,0,0,0, 
111,12, F, ea,1,6,32,132,44,2,1,427.61,424.38,3.23, 
111,12, F, ea,1,4,32,132,45,2,1,338.03,334.38,3.65, 
111,12, F, ea,1,7,32,132,46,2,1,865.33,862.57,2.77, 
111,12, F, ea,1,4,32,132,47,2,1,1069.05,1065.91,3.14, 
111,12, F, ea,2,3,0,132,48,2,1,0,0,0, 
111,12, F, ea,1,8,32,132,49,2,1,1008.19,1005.12,3.08, 
111,12, F, ea,1,5,32,132,50,2,1,316.51,312.08,4.43, 
111,12, F, ea,1,9,32,132,51,2,1,248.9,244.93,3.97, 
111,12, F, ea,1,7,32,132,52,2,1,267.23,263.2,4.03, 
111,12, F, ea,1,8,32,132,53,2,1,261.77,257.75,4.03, 
111,12, F, ea,1,6,32,132,54,2,1,336.46,332.13,4.32, 
111,12, F, ea,3,111,97,132,55,2,999,1956.71,1953.5,3.21, 
111,12, F, ea,1,2,32,132,56,2,1,1123.36,1120.34,3.02, 
111,12, F, ea,1,9,32,132,57,2,1,621.24,618.15,3.09, 
111,12, F, ea,2,3,0,132,58,2,1,0,0,0, 
111,12, F, ea,1,6,0,132,59,2,0,0,0,0, 
111,12, F, ea,1,7,32,132,60,2,1,265.31,261.26,4.05, 
111,12, F, ea,1,9,32,132,61,2,1,259.66,255.47,4.19, 
111,12, F, ea,1,5,32,132,62,2,1,316.42,313.42,3, 
111,12, F, ea,1,4,32,132,63,2,1,304.79,302.03,2.75, 
111,12, F, ea,1,8,32,132,64,2,1,306.13,303.3,2.83, 
111,12, F, ea,1,1,32,132,65,2,1,305.78,298.98,6.79, 
111,12, F, ea,1,6,32,132,66,2,1,352.87,349.73,3.14, 
111,12, F, ea,3,111,98,132,67,2,999,4692.28,4689.57,2.71, 
111,12, F, ea,1,2,32,132,68,2,1,437.56,434.6,2.96, 
111,12, F, ea,1,8,32,132,69,2,1,274.76,270.18,4.59, 
111,12, F, ea,2,3,0,132,70,2,1,0,0,0, 
111,12, F, ea,1,1,32,132,71,2,1,356.85,354.18,2.66, 
111,12, F, ea,1,8,32,132,72,2,1,729.17,726.15,3.02, 
111,12, F, ea,1,9,32,132,73,2,1,404.71,401.64,3.07, 
111,12, F, ea,1,7,32,132,74,2,1,373.84,370.85,2.98, 
111,12, F, ea,1,4,32,132,75,2,1,676.69,673.08,3.61, 
111,12, F, ea,1,8,32,132,76,2,1,318.54,314.35,4.19, 
111,12, F, ea,1,8,32,132,77,2,1,379.22,375.18,4.05, 
111,12, F, ea,2,3,0,132,78,2,1,0,0,0, 
111,12, F, ea,1,1,32,132,79,2,1,390.01,387.3,2.71, 
111,12, F, ea,1,1,32,132,80,2,1,332.39,325.29,7.11, 
111,12, F, ea,1,7,32,132,81,2,1,613.3,610.58,2.72, 
111,12, F, ea,1,8,32,132,82,2,1,367.68,364.64,3.04, 
111,12, F, ea,1,2,32,132,83,2,1,356.2,353.5,2.7, 
111,12, F, ea,2,3,0,132,84,2,1,0,0,0, 
111,12, F, ea,1,8,32,132,85,2,1,657.79,654.83,2.96, 
111,12, F, ea,1,2,32,132,86,2,1,451.81,447.34,4.47, 
111,12, F, ea,1,2,32,132,87,2,1,949.78,946.71,3.08, 
111,12, F, ea,1,6,32,132,88,2,1,872.74,869.91,2.84, 
111,12, F, ea,2,3,0,132,89,2,1,0,0,0, 
111,12, F, ea,1,1,32,132,90,2,1,544.46,541.32,3.14, 
111,12, F, ea,1,2,32,132,91,2,1,757.12,754.28,2.84, 
111,12, F, ea,1,5,32,132,92,2,1,751.8,747.63,4.17, 
111,12, F, ea,1,9,32,132,93,2,1,793.67,790.64,3.03, 
111,12, F, ea,1,7,32,132,94,2,1,754.64,751.96,2.68, 
111,12, F, ea,1,6,32,132,95,2,1,494.19,491.4,2.78, 
111,12, F, ea,2,3,0,132,96,2,1,0,0,0, 
111,12, F, ea,1,7,32,132,97,2,1,305.11,292.47,12.65, 
111,12, F, ea,1,4,32,132,98,2,1,522.27,517.61,4.66, 
111,12, F, ea,1,9,32,132,99,2,1,307.6,304.63,2.97, 
111,12, F, ea,1,1,32,132,100,2,1,246.38,239.46,6.91, 
111,12, F, ea,1,5,32,132,101,2,1,261.89,255.01,6.87, 
111,12, F, ea,1,2,32,132,102,2,1,301.48,297.02,4.45, 
111,12, F, ea,1,2,32,132,103,2,1,414.37,410.82,3.55, 
111,12, F, ea,1,5,32,132,104,2,1,339.77,335.31,4.46, 
111,12, F, ea,1,6,32,132,105,2,1,269.63,266.59,3.05, 
111,12, F, ea,1,1,32,132,106,2,1,296,293.15,2.85, 
111,12, F, ea,1,7,32,132,107,2,1,241.06,237.12,3.94, 
111,12, F, ea,1,2,32,132,108,2,1,265.28,261.32,3.96, 
111,12, F, ea,1,1,32,132,109,2,1,281.57,278.52,3.06, 
111,12, F, ea,1,5,32,132,110,2,1,238.17,235.46,2.71, 
111,12, F, ea,1,8,32,132,111,2,1,263.82,259.32,4.5, 
111,12, F, ea,2,3,32,132,112,2,0,214.94,210.11,4.83, 
111,12, F, ea,1,4,32,132,113,2,1,14,0.88,13.12, 
111,12, F, ea,1,6,32,132,114,2,1,378.75,374.28,4.47, 
111,12, F, ea,1,1,32,132,115,2,1,342.06,337.97,4.09, 
111,12, F, ea,2,3,32,132,116,2,0,345.67,342.91,2.76, 
111,12, F, ea,1,1,32,132,117,2,1,571.03,568.01,3.01, 
111,12, F, ea,1,8,32,132,118,2,1,493.36,490.62,2.74, 
111,12, F, ea,1,8,32,132,119,2,1,298.82,286.5,12.32, 
111,12, F, ea,1,6,32,132,120,2,1,594.45,591.47,2.98, 
111,12, F, ea,3,111,100,132,121,2,999,5926.91,5923.91,3, 
111,12, F, ea,1,9,32,132,122,2,1,910.54,907.73,2.82, 
111,12, F, ea,1,5,32,132,123,2,1,409.3,405.37,3.93, 
111,12, F, ea,1,6,32,132,124,2,1,358.74,354.63,4.11, 
111,12, F, ea,2,3,32,132,125,2,0,279.92,277.21,2.71, 
111,12, F, ea,1,4,32,132,126,2,1,244.46,240.43,4.04, 
111,12, F, ea,1,9,32,132,127,2,1,288.81,284.33,4.48, 
111,12, F, ea,1,6,32,132,128,2,1,265.34,262.16,3.17, 
111,12, F, ea,2,3,0,132,129,2,1,0,0,0, 
111,12, F, ea,1,4,32,132,130,2,1,256.32,251.68,4.64, 
111,12, F, ea,1,4,32,132,131,2,1,458.1,455.38,2.72, 
112,14, F, mid,1,1,32,132,1,1,1,845.71,842.1,3.61, 
112,14, F, mid,1,7,32,132,2,1,1,378.59,374.01,4.58, 
112,14, F, mid,1,6,32,132,3,1,1,332.04,328.4,3.64, 
112,14, F, mid,2,3,32,132,4,1,0,318.67,314.91,3.76, 
112,14, F, mid,1,4,32,132,5,1,1,302.87,299.29,3.58, 
112,14, F, mid,1,7,32,132,6,1,1,864.39,860.87,3.52, 
112,14, F, mid,1,9,32,132,7,1,1,584.51,580.86,3.65, 
112,14, F, mid,1,2,32,132,8,1,1,736.88,733.16,3.72, 
112,14, F, mid,2,3,0,132,9,1,1,0,0,0, 
112,14, F, mid,1,5,32,132,10,1,1,329.46,320.13,9.34, 
112,14, F, mid,1,8,32,132,11,1,1,542.38,538.64,3.74, 
112,14, F, mid,1,7,32,132,12,1,1,727.12,722.77,4.35, 
112,14, F, mid,1,6,32,132,13,1,1,512.16,508.57,3.58, 
112,14, F, mid,1,5,32,132,14,1,1,658.47,654.92,3.55, 
112,14, F, mid,1,4,32,132,15,1,1,590.68,587.28,3.4, 
112,14, F, mid,1,1,32,132,16,1,1,749.27,745.6,3.67, 
112,14, F, mid,1,2,32,132,17,1,1,494.99,491.36,3.63, 
112,14, F, mid,1,2,32,132,18,1,1,481.19,477.72,3.47, 
