subid, subage, gender, group, code, cong, targ, resp, unknown, trial, block, Acc, RT, pause_time,,,,,
102,25, F, adult, CCC,0,21,104,1,1,1,1,592.75,16.8, ,,,,
102,25, F, adult, BAB,1,26,100,1,2,1,1,592.03,113.56, ,,,,
102,25, F, adult, CDC,1,22,98,1,3,1,1,674.16,209.67, ,,,,
102,25, F, adult, BBB,0,25,102,1,4,1,1,447.84,224.71, ,,,,
102,25, F, adult, DDD,0,19,98,1,5,1,1,541.86,219.7, ,,,,
102,25, F, adult, BAB,1,26,100,1,6,1,1,586.22,163.44, ,,,,
102,25, F, adult, CCC,0,21,104,1,7,1,1,501.33,233.61, ,,,,
102,25, F, adult, BAB,1,26,100,1,8,1,1,559.74,251.12, ,,,,
102,25, F, adult, CCC,0,21,104,1,9,1,1,424.55,199.96, ,,,,
102,25, F, adult, BBB,0,25,102,1,10,1,1,376.23,49.62, ,,,,
102,25, F, adult, CCC,0,21,104,1,11,1,1,461.94,23.83, ,,,,
102,25, F, adult, BAB,1,26,100,1,12,1,1,556.96,0.4, ,,,,
102,25, F, adult, DCD,1,20,98,1,13,1,0,600.32,543.95, ,,,,
102,25, F, adult, ABA,1,24,102,1,14,1,1,617.26,354.93, ,,,,
102,25, F, adult, DCD,1,20,104,1,15,1,1,716.09,240.14, ,,,,
102,25, F, adult, AAA,0,23,100,1,16,1,1,454.77,221.69, ,,,,
102,25, F, adult, CCC,0,21,104,1,17,1,1,421.45,301.11, ,,,,
102,25, F, adult, BBB,0,25,102,1,18,1,1,424.32,88.78, ,,,,
102,25, F, adult, CCC,0,21,104,1,19,1,1,456.8,226.78, ,,,,
102,25, F, adult, BAB,1,26,100,1,20,1,1,631.86,241.23, ,,,,
102,25, F, adult, CDC,1,22,98,1,21,1,1,1374.81,113.72, ,,,,
102,25, F, adult, ABA,1,24,102,1,22,1,1,587.64,158.81, ,,,,
102,25, F, adult, CDC,1,22,98,1,23,1,1,606.57,200.27, ,,,,
102,25, F, adult, AAA,0,23,100,1,24,1,1,463.19,183.86, ,,,,
102,25, F, adult, CCC,0,21,104,1,25,1,1,486.72,388.93, ,,,,
102,25, F, adult, AAA,0,23,100,1,26,1,1,397.79,254.24, ,,,,
102,25, F, adult, DCD,1,20,104,1,27,1,1,755.62,214.62, ,,,,
102,25, F, adult, AAA,0,23,100,1,28,1,1,419.98,213.68, ,,,,
102,25, F, adult, CDC,1,22,98,1,29,1,1,946.46,256.15, ,,,,
102,25, F, adult, AAA,0,23,100,1,30,1,1,446.22,158.06, ,,,,
102,25, F, adult, DDD,0,19,98,1,31,1,1,725.33,274.84, ,,,,
102,25, F, adult, AAA,0,23,100,1,32,1,1,439.76,199.18, ,,,,
102,25, F, adult, CCC,0,21,104,1,33,1,1,447.74,151.11, ,,,,
102,25, F, adult, AAA,0,23,100,1,34,1,1,414.88,288.58, ,,,,
102,25, F, adult, DCD,1,20,104,1,35,1,1,627.66,37.16, ,,,,
102,25, F, adult, BAB,1,26,100,1,36,1,1,595.08,20.69, ,,,,
102,25, F, adult, DDD,0,19,98,1,37,1,1,444.23,106.9, ,,,,
102,25, F, adult, BBB,0,25,102,1,38,1,1,454.74,0.4, ,,,,
102,25, F, adult, DCD,1,20,104,1,39,1,1,667.67,44.68, ,,,,
102,25, F, adult, BBB,0,25,102,1,40,1,1,449.75,168.03, ,,,,
102,25, F, adult, CDC,1,22,98,1,41,1,1,845.59,208.38, ,,,,
102,25, F, adult, BBB,0,25,102,1,42,1,1,456.2,102.71, ,,,,
102,25, F, adult, CCC,0,21,104,1,43,1,1,521.29,175.07, ,,,,
102,25, F, adult, ABA,1,24,102,1,44,1,1,727.61,123.5, ,,,,
102,25, F, adult, CDC,1,22,98,1,45,1,1,894.66,100.43, ,,,,
102,25, F, adult, AAA,0,23,100,1,46,1,1,461.54,182.98, ,,,,
102,25, F, adult, CCC,0,21,104,1,47,1,1,485.38,100.71, ,,,,
102,25, F, adult, AAA,0,23,100,1,48,1,1,495.38,180.92, ,,,,
102,25, F, adult, CCC,0,21,104,1,49,1,1,448.04,155.95, ,,,,
102,25, F, adult, ABA,1,24,102,1,50,1,1,565.37,55.68, ,,,,
102,25, F, adult, DDD,0,19,98,1,51,1,1,485.84,66.69, ,,,,
102,25, F, adult, BBB,0,25,102,1,52,1,1,435.62,223.93, ,,,,
102,25, F, adult, CDC,1,22,98,1,53,1,1,745.47,202.03, ,,,,
102,25, F, adult, BAB,1,26,100,1,54,1,1,593.09,98.45, ,,,,
102,25, F, adult, DDD,0,19,98,1,55,1,1,488.62,84.18, ,,,,
102,25, F, adult, BAB,1,26,100,1,56,1,1,695.76,253.14, ,,,,
102,25, F, adult, CDC,1,22,98,1,57,1,1,801.99,91.49, ,,,,
102,25, F, adult, BAB,1,26,100,1,58,1,1,534.14,123.17, ,,,,
102,25, F, adult, DCD,1,20,104,1,59,1,1,830.7,55.14, ,,,,
102,25, F, adult, BBB,0,25,102,1,60,1,1,508.57,377.3, ,,,,
102,25, F, adult, CDC,1,22,98,1,61,1,1,720.73,53.77, ,,,,
102,25, F, adult, BBB,0,25,102,1,62,1,1,418.9,51.45, ,,,,
102,25, F, adult, DCD,1,20,104,1,63,1,1,716.69,77.02, ,,,,
102,25, F, adult, ABA,1,24,102,1,64,1,1,651.52,136.8, ,,,,
102,25, F, adult, DCD,1,20,104,1,65,1,1,905.83,248.62, ,,,,
102,25, F, adult, ABA,1,24,102,1,66,1,1,558.2,160.91, ,,,,
102,25, F, adult, DDD,0,19,98,1,67,1,1,714.04,46.67, ,,,,
102,25, F, adult, BBB,0,25,102,1,68,1,1,421.29,108.3, ,,,,
102,25, F, adult, DCD,1,20,104,1,69,1,1,878.57,70.11, ,,,,
102,25, F, adult, AAA,0,23,100,1,70,1,1,395.75,148.43, ,,,,
102,25, F, adult, CDC,1,22,98,1,71,1,1,640.22,597.46, ,,,,
102,25, F, adult, BAB,1,26,100,1,72,1,1,566.16,79.96, ,,,,
102,25, F, adult, CCC,0,21,104,1,73,1,1,636.94,123.78, ,,,,
102,25, F, adult, ABA,1,24,102,1,74,1,1,542.24,65.28, ,,,,
102,25, F, adult, DCD,1,20,104,1,75,1,1,539.81,49.46, ,,,,
102,25, F, adult, ABA,1,24,102,1,76,1,1,520.95,35.28, ,,,,
102,25, F, adult, DCD,1,20,104,1,77,1,1,657.83,176.29, ,,,,
102,25, F, adult, ABA,1,24,102,1,78,1,1,543.43,60.65, ,,,,
102,25, F, adult, DDD,0,19,98,1,79,1,1,532.27,78.62, ,,,,
102,25, F, adult, BBB,0,25,102,1,80,1,1,403.62,59.31, ,,,,
102,25, F, adult, DDD,0,19,98,1,81,1,1,442.13,0.42, ,,,,
102,25, F, adult, ABA,1,24,102,1,82,1,1,510.75,0.42, ,,,,
102,25, F, adult, DDD,0,19,98,1,83,1,1,388.06,77.59, ,,,,
102,25, F, adult, AAA,0,23,100,1,84,1,1,465.55,0.4, ,,,,
102,25, F, adult, DCD,1,20,104,1,85,1,1,845.11,256.4, ,,,,
102,25, F, adult, BBB,0,25,102,1,86,1,1,405.38,279.38, ,,,,
102,25, F, adult, CDC,1,22,98,1,87,1,1,801.5,243.93, ,,,,
102,25, F, adult, ABA,1,24,102,1,88,1,1,655.7,264.18, ,,,,
102,25, F, adult, DDD,0,19,98,1,89,1,1,550.21,208.27, ,,,,
102,25, F, adult, ABA,1,24,102,1,90,1,1,559.95,12.03, ,,,,
102,25, F, adult, CDC,1,22,98,1,91,1,1,665.84,111.28, ,,,,
102,25, F, adult, BAB,1,26,100,1,92,1,1,699.05,111.68, ,,,,
102,25, F, adult, DDD,0,19,98,1,93,1,1,436.23,275.28, ,,,,
102,25, F, adult, AAA,0,23,100,1,94,1,1,570.42,225.72, ,,,,
102,25, F, adult, CCC,0,21,104,1,95,1,1,504.21,253.43, ,,,,
102,25, F, adult, BAB,1,26,100,1,96,1,1,754.51,293.82, ,,,,
102,25, F, adult, DDD,0,19,98,1,97,1,1,466.19,56.21, ,,,,
102,25, F, adult, DCD,1,20,104,1,1,2,1,746.47,358.23, ,,,,
102,25, F, adult, ABA,1,24,102,1,2,2,1,526.82,291.01, ,,,,
102,25, F, adult, CCC,0,21,104,1,3,2,1,430.89,0.4, ,,,,
102,25, F, adult, BBB,0,25,102,1,4,2,1,478.92,0.41, ,,,,
102,25, F, adult, DCD,1,20,104,1,5,2,1,724.09,257.45, ,,,,
102,25, F, adult, BAB,1,26,100,1,6,2,1,500.64,235.1, ,,,,
102,25, F, adult, DCD,1,20,104,1,7,2,1,450.46,80.8, ,,,,
102,25, F, adult, AAA,0,23,100,1,8,2,1,427.62,196.34, ,,,,
102,25, F, adult, CCC,0,21,104,1,9,2,1,483.53,65.49, ,,,,
102,25, F, adult, ABA,1,24,102,1,10,2,1,557.37,0.41, ,,,,
102,25, F, adult, DDD,0,19,98,1,11,2,1,599.55,41.82, ,,,,
102,25, F, adult, AAA,0,23,100,1,12,2,1,472.91,69.85, ,,,,
102,25, F, adult, CDC,1,22,98,1,13,2,1,756.69,134.27, ,,,,
102,25, F, adult, ABA,1,24,102,1,14,2,1,548.51,227.13, ,,,,
102,25, F, adult, CDC,1,22,98,1,15,2,1,1136.79,118.09, ,,,,
102,25, F, adult, AAA,0,23,100,1,16,2,1,470.58,30.15, ,,,,
102,25, F, adult, DCD,1,20,104,1,17,2,1,883.02,66.3, ,,,,
102,25, F, adult, BAB,1,26,100,1,18,2,1,797.81,120.1, ,,,,
102,25, F, adult, CCC,0,21,104,1,19,2,1,500.46,312.39, ,,,,
102,25, F, adult, BAB,1,26,100,1,20,2,1,589.78,196.95, ,,,,
102,25, F, adult, DCD,1,20,104,1,21,2,1,853.86,148.19, ,,,,
102,25, F, adult, BAB,1,26,100,1,22,2,1,589.04,0.41, ,,,,
102,25, F, adult, DDD,0,19,98,1,23,2,1,547.33,193.34, ,,,,
102,25, F, adult, ABA,1,24,102,1,24,2,1,596.59,74.94, ,,,,
102,25, F, adult, CCC,0,21,104,1,25,2,1,495.97,213.3, ,,,,
102,25, F, adult, AAA,0,23,100,1,26,2,1,485.11,225.86, ,,,,
102,25, F, adult, DCD,1,20,104,1,27,2,1,673.46,134.81, ,,,,
102,25, F, adult, AAA,0,23,100,1,28,2,1,473.26,183.16, ,,,,
102,25, F, adult, CCC,0,21,104,1,29,2,1,499.4,748.73, ,,,,
102,25, F, adult, BBB,0,25,102,1,30,2,1,460.98,237.68, ,,,,
102,25, F, adult, CDC,1,22,98,1,31,2,1,795.59,220.42, ,,,,
102,25, F, adult, BBB,0,25,102,1,32,2,1,498.64,248.11, ,,,,
102,25, F, adult, DDD,0,19,98,1,33,2,1,455.59,261.4, ,,,,
102,25, F, adult, BAB,1,26,100,1,34,2,1,794.99,132.43, ,,,,
102,25, F, adult, DCD,1,20,104,1,35,2,1,751.21,152.65, ,,,,
102,25, F, adult, AAA,0,23,100,1,36,2,1,545.62,293.92, ,,,,
102,25, F, adult, CCC,0,21,104,1,37,2,1,530.14,205.94, ,,,,
102,25, F, adult, BBB,0,25,102,1,38,2,1,482.58,99.67, ,,,,
102,25, F, adult, DDD,0,19,98,1,39,2,1,663.21,349.94, ,,,,
102,25, F, adult, BAB,1,26,100,1,40,2,1,574.47,241.09, ,,,,
102,25, F, adult, CCC,0,21,104,1,41,2,1,465.49,269.45, ,,,,
102,25, F, adult, AAA,0,23,100,1,42,2,1,467.17,272.48, ,,,,
102,25, F, adult, CCC,0,21,104,1,43,2,1,550.12,65.13, ,,,,
102,25, F, adult, BAB,1,26,100,1,44,2,1,841.45,84.59, ,,,,
102,25, F, adult, CCC,0,21,104,1,45,2,1,476.53,199.63, ,,,,
102,25, F, adult, ABA,1,24,102,1,46,2,1,582.94,56.01, ,,,,
102,25, F, adult, DDD,0,19,98,1,47,2,1,534.27,297.04, ,,,,
102,25, F, adult, ABA,1,24,102,1,48,2,1,563.21,71.4, ,,,,
102,25, F, adult, DDD,0,19,98,1,49,2,1,676.37,114.39, ,,,,
102,25, F, adult, BAB,1,26,100,1,50,2,1,598.36,334.12, ,,,,
102,25, F, adult, CCC,0,21,104,1,51,2,1,871.9,271.33, ,,,,
102,25, F, adult, AAA,0,23,100,1,52,2,1,483.98,337.72, ,,,,
102,25, F, adult, DCD,1,20,104,1,53,2,1,951.6,46.17, ,,,,
102,25, F, adult, ABA,1,24,102,1,54,2,1,500.8,152.44, ,,,,
102,25, F, adult, CDC,1,22,98,1,55,2,1,976.93,180.12, ,,,,
102,25, F, adult, AAA,0,23,100,1,56,2,1,492.83,129.78, ,,,,
102,25, F, adult, CCC,0,21,104,1,57,2,1,482.54,89.48, ,,,,
102,25, F, adult, ABA,1,24,102,1,58,2,1,580.12,96.29, ,,,,
102,25, F, adult, DDD,0,19,98,1,59,2,1,553.98,254.15, ,,,,
102,25, F, adult, BBB,0,25,102,1,60,2,1,450.74,226.61, ,,,,
102,25, F, adult, CDC,1,22,98,1,61,2,1,648.65,136.81, ,,,,
102,25, F, adult, AAA,0,23,100,1,62,2,1,432.01,42.08, ,,,,
102,25, F, adult, DCD,1,20,104,1,63,2,1,673.67,230.43, ,,,,
102,25, F, adult, ABA,1,24,102,1,64,2,1,436.41,324.05, ,,,,
102,25, F, adult, CDC,1,22,98,1,65,2,1,935.26,203.31, ,,,,
102,25, F, adult, BBB,0,25,102,1,66,2,1,535.2,285.48, ,,,,
102,25, F, adult, DDD,0,19,98,1,67,2,1,569.88,188.95, ,,,,
102,25, F, adult, AAA,0,23,100,1,68,2,1,461.25,539, ,,,,
102,25, F, adult, DDD,0,19,98,1,69,2,1,543.48,97.08, ,,,,
102,25, F, adult, BBB,0,25,102,1,70,2,1,444.09,195.64, ,,,,
102,25, F, adult, DDD,0,19,98,1,71,2,1,443.94,195.92, ,,,,
102,25, F, adult, BAB,1,26,100,1,72,2,1,746.28,301.72, ,,,,
102,25, F, adult, CDC,1,22,98,1,73,2,1,987.44,114.86, ,,,,
102,25, F, adult, BAB,1,26,100,1,74,2,1,830.82,23.91, ,,,,
102,25, F, adult, DCD,1,20,104,1,75,2,1,772.72,294.97, ,,,,
102,25, F, adult, BBB,0,25,102,1,76,2,1,483.09,176.71, ,,,,
102,25, F, adult, DDD,0,19,98,1,77,2,1,615.75,641.75, ,,,,
102,25, F, adult, BBB,0,25,102,1,78,2,1,561.47,251.58, ,,,,
102,25, F, adult, CDC,1,22,98,1,79,2,1,703.38,61.33, ,,,,
102,25, F, adult, BBB,0,25,102,1,80,2,1,524.3,255.75, ,,,,
102,25, F, adult, DCD,1,20,104,1,81,2,1,702.14,210.19, ,,,,
102,25, F, adult, BBB,0,25,102,1,82,2,1,530,228.88, ,,,,
102,25, F, adult, CDC,1,22,98,1,83,2,1,597.58,436.74, ,,,,
102,25, F, adult, BAB,1,26,100,1,84,2,1,658.9,281.72, ,,,,
102,25, F, adult, DCD,1,20,104,1,85,2,1,789.28,167.51, ,,,,
102,25, F, adult, ABA,1,24,102,1,86,2,1,540.13,443.9, ,,,,
102,25, F, adult, DDD,0,19,98,1,87,2,1,617.95,82.13, ,,,,
102,25, F, adult, BBB,0,25,102,1,88,2,1,710.47,147.9, ,,,,
102,25, F, adult, CCC,0,21,104,1,89,2,1,605.58,86.55, ,,,,
102,25, F, adult, ABA,1,24,102,1,90,2,1,610.22,290.62, ,,,,
102,25, F, adult, CDC,1,22,98,1,91,2,1,644.49,142.78, ,,,,
102,25, F, adult, ABA,1,24,102,1,92,2,1,527.77,220.74, ,,,,
102,25, F, adult, CDC,1,22,98,1,93,2,1,579.37,197.88, ,,,,
102,25, F, adult, BAB,1,26,100,1,94,2,1,620.19,118.75, ,,,,
102,25, F, adult, DCD,1,20,104,1,95,2,1,638.38,288.68, ,,,,
102,25, F, adult, AAA,0,23,100,1,96,2,1,651.26,435.04, ,,,,
102,25, F, adult, CDC,1,22,98,1,97,2,1,608.87,2.22, ,,,,
102,25, F, adult, DDD,0,19,98,1,1,3,1,1786,388.81, ,,,,
102,25, F, adult, BBB,0,25,102,1,2,3,1,589.34,61.75, ,,,,
102,25, F, adult, DCD,1,20,104,1,3,3,1,715.47,319.4, ,,,,
102,25, F, adult, AAA,0,23,100,1,4,3,1,450.27,441.17, ,,,,
102,25, F, adult, DDD,0,19,98,1,5,3,1,591.65,209.67, ,,,,
102,25, F, adult, BBB,0,25,102,1,6,3,1,576.27,171.36, ,,,,
102,25, F, adult, DCD,1,20,104,1,7,3,1,641.1,274.95, ,,,,
102,25, F, adult, AAA,0,23,100,1,8,3,1,496.18,189.72, ,,,,
102,25, F, adult, CCC,0,21,104,1,9,3,1,412.05,38.46, ,,,,
102,25, F, adult, AAA,0,23,100,1,10,3,1,460.94,0.4, ,,,,
102,25, F, adult, CDC,1,22,98,1,11,3,1,794.57,0.41, ,,,,
102,25, F, adult, ABA,1,24,102,1,12,3,1,576.13,0.4, ,,,,
102,25, F, adult, DDD,0,19,98,1,13,3,1,566.88,57.02, ,,,,
102,25, F, adult, BAB,1,26,100,1,14,3,1,620.86,70.29, ,,,,
102,25, F, adult, CDC,1,22,98,1,15,3,1,1304.9,143.25, ,,,,
102,25, F, adult, AAA,0,23,100,1,16,3,1,522.49,326.46, ,,,,
102,25, F, adult, CDC,1,22,98,1,17,3,1,656.83,199.42, ,,,,
102,25, F, adult, BAB,1,26,100,1,18,3,1,711.23,123.75, ,,,,
102,25, F, adult, DCD,1,20,104,1,19,3,1,1021.59,15.12, ,,,,
102,25, F, adult, ABA,1,24,102,1,20,3,1,561.33,120.52, ,,,,
102,25, F, adult, CDC,1,22,98,1,21,3,1,673.93,201.56, ,,,,
102,25, F, adult, BAB,1,26,100,1,22,3,1,985.8,146.56, ,,,,
102,25, F, adult, DDD,0,19,98,1,23,3,1,614.73,116.35, ,,,,
102,25, F, adult, ABA,1,24,102,1,24,3,1,487.08,12.85, ,,,,
102,25, F, adult, DCD,1,20,104,1,25,3,1,691.03,89.7, ,,,,
102,25, F, adult, AAA,0,23,100,1,26,3,1,491.94,170.68, ,,,,
102,25, F, adult, DCD,1,20,104,1,27,3,1,1012.51,20.59, ,,,,
102,25, F, adult, BBB,0,25,102,1,28,3,1,425.49,0.41, ,,,,
102,25, F, adult, CDC,1,22,98,1,29,3,1,849.7,193.84, ,,,,
102,25, F, adult, BAB,1,26,100,1,30,3,1,647.67,58.43, ,,,,
102,25, F, adult, DCD,1,20,104,1,31,3,1,1903.21,212.1, ,,,,
102,25, F, adult, BAB,1,26,100,1,32,3,1,609.01,315.8, ,,,,
102,25, F, adult, CDC,1,22,98,1,33,3,1,766.53,176.96, ,,,,
102,25, F, adult, ABA,1,24,102,1,34,3,1,532.41,237.22, ,,,,
102,25, F, adult, DCD,1,20,104,1,35,3,1,819.02,156.46, ,,,,
102,25, F, adult, BBB,0,25,102,1,36,3,1,573.58,327.45, ,,,,
102,25, F, adult, CCC,0,21,104,1,37,3,1,540.38,150.22, ,,,,
102,25, F, adult, AAA,0,23,100,1,38,3,1,1173.68,225.56, ,,,,
102,25, F, adult, CCC,0,21,104,1,39,3,1,512.9,126.05, ,,,,
102,25, F, adult, BAB,1,26,100,1,40,3,1,606.11,225.01, ,,,,
102,25, F, adult, DDD,0,19,98,1,41,3,1,642.93,183.36, ,,,,
102,25, F, adult, ABA,1,24,102,1,42,3,1,744.04,267.76, ,,,,
102,25, F, adult, CCC,0,21,104,1,43,3,1,538.87,147.45, ,,,,
102,25, F, adult, AAA,0,23,100,1,44,3,1,723.79,241.92, ,,,,
102,25, F, adult, DDD,0,19,98,1,45,3,1,678.24,237.62, ,,,,
102,25, F, adult, BBB,0,25,102,1,46,3,1,381.09,213.8, ,,,,
102,25, F, adult, DCD,1,20,104,1,47,3,1,813.34,189.7, ,,,,
102,25, F, adult, BAB,1,26,100,1,48,3,1,981.84,183.43, ,,,,
102,25, F, adult, CCC,0,21,104,1,49,3,1,582.83,305.1, ,,,,
102,25, F, adult, BAB,1,26,100,1,50,3,1,965.25,246.91, ,,,,
102,25, F, adult, DCD,1,20,104,1,51,3,1,615.53,100.9, ,,,,
102,25, F, adult, BBB,0,25,102,1,52,3,1,507.31,245.33, ,,,,
102,25, F, adult, DDD,0,19,98,1,53,3,1,833.58,250.72, ,,,,
102,25, F, adult, ABA,1,24,102,1,54,3,1,615.5,288.45, ,,,,
102,25, F, adult, DDD,0,19,98,1,55,3,1,680.01,554.83, ,,,,
102,25, F, adult, AAA,0,23,100,1,56,3,1,524.02,800.57, ,,,,
102,25, F, adult, DDD,0,19,98,1,57,3,1,625.29,177.16, ,,,,
102,25, F, adult, BBB,0,25,102,1,58,3,1,410.95,234, ,,,,
102,25, F, adult, CCC,0,21,104,1,59,3,1,1440.11,432.28, ,,,,
102,25, F, adult, ABA,1,24,102,1,60,3,1,588.46,112.49, ,,,,
102,25, F, adult, DDD,0,19,98,1,61,3,1,570.87,149.46, ,,,,
102,25, F, adult, ABA,1,24,102,1,62,3,1,488.07,0.42, ,,,,
102,25, F, adult, DCD,1,20,104,1,63,3,1,1028.85,0.4, ,,,,
102,25, F, adult, ABA,1,24,102,1,64,3,1,486.31,0.4, ,,,,
102,25, F, adult, DCD,1,20,104,1,65,3,1,712.39,0.4, ,,,,
102,25, F, adult, BBB,0,25,102,1,66,3,1,412.27,22.03, ,,,,
102,25, F, adult, CDC,1,22,98,1,67,3,1,685.2,66.89, ,,,,
102,25, F, adult, BAB,1,26,100,1,68,3,1,654.77,0.41, ,,,,
102,25, F, adult, CCC,0,21,104,1,69,3,1,598.09,1062.16, ,,,,
102,25, F, adult, AAA,0,23,100,1,70,3,1,579.03,85.39, ,,,,
102,25, F, adult, CDC,1,22,98,1,71,3,1,681.13,87.73, ,,,,
102,25, F, adult, BAB,1,26,100,1,72,3,1,556.93,110.73, ,,,,
102,25, F, adult, CCC,0,21,104,1,73,3,1,627.8,107.28, ,,,,
102,25, F, adult, BAB,1,26,100,1,74,3,1,871.85,84.23, ,,,,
102,25, F, adult, CDC,1,22,98,1,75,3,1,695.34,173.91, ,,,,
102,25, F, adult, BBB,0,25,102,1,76,3,1,495.23,60.3, ,,,,
102,25, F, adult, DDD,0,19,98,1,77,3,1,545.55,53.24, ,,,,
102,25, F, adult, ABA,1,24,102,1,78,3,1,541.01,46.24, ,,,,
102,25, F, adult, CDC,1,22,98,1,79,3,1,682.93,90.14, ,,,,
102,25, F, adult, ABA,1,24,102,1,80,3,1,528.08,105.64, ,,,,
102,25, F, adult, CCC,0,21,104,1,81,3,1,1069.06,339.33, ,,,,
102,25, F, adult, BBB,0,25,102,1,82,3,1,396.55,199.08, ,,,,
102,25, F, adult, DDD,0,19,98,1,83,3,1,725.15,1034.74, ,,,,
102,25, F, adult, ABA,1,24,102,1,84,3,1,585.47,258.66, ,,,,
102,25, F, adult, DDD,0,19,98,1,85,3,1,606.66,225.02, ,,,,
102,25, F, adult, BBB,0,25,102,1,86,3,1,481.04,318.55, ,,,,
102,25, F, adult, CDC,1,22,98,1,87,3,1,713.47,205.74, ,,,,
102,25, F, adult, BBB,0,25,102,1,88,3,1,452.54,180.93, ,,,,
102,25, F, adult, CCC,0,21,104,1,89,3,1,1368.63,270.6, ,,,,
102,25, F, adult, BAB,1,26,100,1,90,3,1,595.72,141.02, ,,,,
102,25, F, adult, CCC,0,21,104,1,91,3,1,670.01,437.9, ,,,,
102,25, F, adult, AAA,0,23,100,1,92,3,1,542.3,255.21, ,,,,
102,25, F, adult, DCD,1,20,104,1,93,3,1,954.06,7.78, ,,,,
102,25, F, adult, AAA,0,23,100,1,94,3,1,525.96,3.39, ,,,,
102,25, F, adult, CDC,1,22,98,1,95,3,1,1019.4,107, ,,,,
102,25, F, adult, AAA,0,23,100,1,96,3,1,741.43,442.71, ,,,,
102,25, F, adult, CCC,0,21,104,1,97,3,1,838.96,296.81, ,,,,
103,12, F, ea, CCC,0,21,104,1,1,1,1,1124.51,877.56, ,,,,
103,12, F, ea, AAA,0,23,100,1,2,1,1,941.69,854.23, ,,,,
103,12, F, ea, CDC,1,22,98,1,3,1,1,1097.04,490.09, ,,,,
103,12, F, ea, ABA,1,24,102,1,4,1,1,1358.44,626.58, ,,,,
103,12, F, ea, DCD,1,20,104,1,5,1,1,1682.82,513.43, ,,,,
103,12, F, ea, BBB,0,25,102,1,6,1,1,1424.23,453.35, ,,,,
103,12, F, ea, CDC,1,22,98,1,7,1,1,1064.04,466.2, ,,,,
103,12, F, ea, BBB,0,25,102,1,8,1,1,1187.41,320.75, ,,,,
103,12, F, ea, DDD,0,19,98,1,9,1,1,1061.11,554.34, ,,,,
103,12, F, ea, ABA,1,24,102,1,10,1,1,1148.12,495.26, ,,,,
103,12, F, ea, DDD,0,19,98,1,11,1,1,839.85,570.83, ,,,,
103,12, F, ea, BBB,0,25,102,1,12,1,1,1173.67,790.34, ,,,,
103,12, F, ea, CDC,1,22,98,1,13,1,1,1186.3,554.27, ,,,,
103,12, F, ea, AAA,0,23,100,1,14,1,1,1112.12,400.66, ,,,,
103,12, F, ea, CDC,1,22,98,1,15,1,1,1641.82,433.22, ,,,,
103,12, F, ea, BAB,1,26,100,1,16,1,1,1539.09,636.43, ,,,,
103,12, F, ea, CDC,1,22,98,1,17,1,1,2006.03,975.13, ,,,,
103,12, F, ea, BAB,1,26,100,1,18,1,1,1115.63,1302.2, ,,,,
103,12, F, ea, DCD,1,20,104,1,19,1,1,1981.53,1327.67, ,,,,
103,12, F, ea, AAA,0,23,100,1,20,1,1,1128.55,945.11, ,,,,
103,12, F, ea, DDD,0,19,98,1,21,1,1,1101.32,689.3, ,,,,
103,12, F, ea, BAB,1,26,100,1,22,1,1,1137.02,394.53, ,,,,
103,12, F, ea, CCC,0,21,104,1,23,1,1,1053.87,536.92, ,,,,
103,12, F, ea, ABA,1,24,102,1,24,1,1,1422.08,1644.23, ,,,,
103,12, F, ea, CDC,1,22,98,1,25,1,1,1280.23,907.55, ,,,,
103,12, F, ea, ABA,1,24,102,1,26,1,1,1161.51,467.33, ,,,,
103,12, F, ea, CCC,0,21,104,1,27,1,1,1160.32,539.1, ,,,,
103,12, F, ea, BAB,1,26,100,1,28,1,1,1097.86,411.67, ,,,,
103,12, F, ea, DDD,0,19,98,1,29,1,1,867.82,376.39, ,,,,
103,12, F, ea, AAA,0,23,100,1,30,1,1,891.11,1029.62, ,,,,
103,12, F, ea, CCC,0,21,104,1,31,1,1,1361.78,313.23, ,,,,
103,12, F, ea, AAA,0,23,100,1,32,1,1,749.15,301.91, ,,,,
103,12, F, ea, CDC,1,22,98,1,33,1,1,1292.67,462.96, ,,,,
103,12, F, ea, BBB,0,25,102,1,34,1,1,1102.92,361.44, ,,,,
103,12, F, ea, DCD,1,20,104,1,35,1,1,1188.05,1132.4, ,,,,
103,12, F, ea, AAA,0,23,100,1,36,1,1,1228.86,728.71, ,,,,
103,12, F, ea, DDD,0,19,98,1,37,1,1,1016.44,364.24, ,,,,
103,12, F, ea, BAB,1,26,100,1,38,1,1,1058.77,604.15, ,,,,
103,12, F, ea, DCD,1,20,104,1,39,1,1,1493.78,411.36, ,,,,
103,12, F, ea, ABA,1,24,102,1,40,1,1,1373.33,693.41, ,,,,
103,12, F, ea, CCC,0,21,104,1,41,1,1,2197.87,486.25, ,,,,
103,12, F, ea, ABA,1,24,102,1,42,1,1,1764.78,287.11, ,,,,
103,12, F, ea, CCC,0,21,104,1,43,1,1,1117.38,1270.48, ,,,,
103,12, F, ea, BBB,0,25,102,1,44,1,1,1183.76,384.66, ,,,,
103,12, F, ea, CCC,0,21,104,1,45,1,1,1291.15,374.49, ,,,,
103,12, F, ea, BAB,1,26,100,1,46,1,1,1019.4,1128.35, ,,,,
103,12, F, ea, DCD,1,20,104,1,47,1,1,1183.75,957.81, ,,,,
103,12, F, ea, AAA,0,23,100,1,48,1,1,1181.28,418.6, ,,,,
103,12, F, ea, DDD,0,19,98,1,49,1,1,1005.47,874.8, ,,,,
103,12, F, ea, AAA,0,23,100,1,50,1,1,866.97,317.72, ,,,,
103,12, F, ea, DCD,1,20,104,1,51,1,1,1172.96,315.32, ,,,,
103,12, F, ea, AAA,0,23,100,1,52,1,1,671.9,372.12, ,,,,
103,12, F, ea, DCD,1,20,104,1,53,1,1,1231,316.5, ,,,,
103,12, F, ea, BAB,1,26,100,1,54,1,1,1187.81,385.27, ,,,,
103,12, F, ea, DDD,0,19,98,1,55,1,1,957.34,1140.3, ,,,,
103,12, F, ea, BBB,0,25,102,1,56,1,1,986.23,641.91, ,,,,
103,12, F, ea, DDD,0,19,98,1,57,1,1,995.16,609.08, ,,,,
103,12, F, ea, ABA,1,24,102,1,58,1,1,1555.96,454.05, ,,,,
103,12, F, ea, DCD,1,20,104,1,59,1,1,1102.4,360.64, ,,,,
103,12, F, ea, ABA,1,24,102,1,60,1,1,1492.36,584.8, ,,,,
103,12, F, ea, DDD,0,19,98,1,61,1,1,1092.16,367.05, ,,,,
103,12, F, ea, ABA,1,24,102,1,62,1,1,1731.55,541.42, ,,,,
103,12, F, ea, CCC,0,21,104,1,63,1,1,1313.21,428.59, ,,,,
103,12, F, ea, BBB,0,25,102,1,64,1,1,2542.51,682.68, ,,,,
103,12, F, ea, DDD,0,19,98,1,65,1,1,1046.61,997.95, ,,,,
103,12, F, ea, BAB,1,26,100,1,66,1,1,1298.42,365.55, ,,,,
103,12, F, ea, DDD,0,19,98,1,67,1,1,969.9,888.38, ,,,,
103,12, F, ea, BAB,1,26,100,1,68,1,1,1056.66,229.52, ,,,,
103,12, F, ea, DCD,1,20,104,1,69,1,1,1458.8,307.09, ,,,,
103,12, F, ea, AAA,0,23,100,1,70,1,1,784.96,710.9, ,,,,
103,12, F, ea, CDC,1,22,98,1,71,1,1,2405.78,1983.24, ,,,,
103,12, F, ea, ABA,1,24,102,1,72,1,1,976.06,190.87, ,,,,
103,12, F, ea, CDC,1,22,98,1,73,1,1,1354.69,225.51, ,,,,
103,12, F, ea, ABA,1,24,102,1,74,1,1,961.94,226.58, ,,,,
103,12, F, ea, CDC,1,22,98,1,75,1,1,907.59,397.27, ,,,,
103,12, F, ea, AAA,0,23,100,1,76,1,1,624.32,411.43, ,,,,
103,12, F, ea, CDC,1,22,98,1,77,1,1,853.5,360.84, ,,,,
103,12, F, ea, BBB,0,25,102,1,78,1,1,933.17,925.98, ,,,,
103,12, F, ea, DDD,0,19,98,1,79,1,1,692.57,678.33, ,,,,
103,12, F, ea, BBB,0,25,102,1,80,1,1,789.29,388.64, ,,,,
103,12, F, ea, CCC,0,21,104,1,81,1,1,1104.5,369.54, ,,,,
103,12, F, ea, BBB,0,25,102,1,82,1,1,946.59,292.64, ,,,,
103,12, F, ea, DCD,1,20,104,1,83,1,1,1289.72,510.52, ,,,,
103,12, F, ea, BAB,1,26,100,1,84,1,1,1004.34,386.71, ,,,,
103,12, F, ea, CDC,1,22,98,1,85,1,1,948.76,397.7, ,,,,
103,12, F, ea, BAB,1,26,100,1,86,1,1,1295.86,411.82, ,,,,
103,12, F, ea, CCC,0,21,104,1,87,1,1,1221.85,499.65, ,,,,
103,12, F, ea, BAB,1,26,100,1,88,1,1,1083.42,364.49, ,,,,
103,12, F, ea, DCD,1,20,104,1,89,1,1,1280.32,355.78, ,,,,
103,12, F, ea, AAA,0,23,100,1,90,1,1,1174.76,591.86, ,,,,
103,12, F, ea, CCC,0,21,104,1,91,1,1,645.52,325.97, ,,,,
103,12, F, ea, BBB,0,25,102,1,92,1,1,1067.47,631.11, ,,,,
103,12, F, ea, CCC,0,21,104,1,93,1,1,1185.41,375.4, ,,,,
103,12, F, ea, ABA,1,24,102,1,94,1,1,1218.59,241.21, ,,,,
103,12, F, ea, DCD,1,20,104,1,95,1,1,1113.98,427.51, ,,,,
103,12, F, ea, BBB,0,25,102,1,96,1,1,747.47,443.47, ,,,,
103,12, F, ea, CCC,0,21,104,1,97,1,1,692.73,229.93, ,,,,
103,12, F, ea, CCC,0,21,104,1,1,2,1,1009.7,318.82, ,,,,
103,12, F, ea, ABA,1,24,102,1,2,2,1,1152.92,284.83, ,,,,
103,12, F, ea, CDC,1,22,98,1,3,2,1,1443.49,569.49, ,,,,
103,12, F, ea, BBB,0,25,102,1,4,2,1,635.64,328.76, ,,,,
103,12, F, ea, DCD,1,20,104,1,5,2,1,1192.4,253.12, ,,,,
103,12, F, ea, BAB,1,26,100,1,6,2,1,1069.33,648.69, ,,,,
103,12, F, ea, DCD,1,20,104,1,7,2,1,1483.16,541.81, ,,,,
103,12, F, ea, BAB,1,26,100,1,8,2,1,1163.94,307.44, ,,,,
103,12, F, ea, DCD,1,20,104,1,9,2,1,1487.82,429.41, ,,,,
103,12, F, ea, ABA,1,24,102,1,10,2,1,1173.87,493.81, ,,,,
103,12, F, ea, CDC,1,22,98,1,11,2,1,1062.42,297.13, ,,,,
103,12, F, ea, AAA,0,23,100,1,12,2,1,501.09,295.11, ,,,,
103,12, F, ea, DCD,1,20,104,1,13,2,1,1133.14,254.3, ,,,,
103,12, F, ea, BBB,0,25,102,1,14,2,1,661.52,305.57, ,,,,
103,12, F, ea, CDC,1,22,98,1,15,2,1,1152.35,297.21, ,,,,
103,12, F, ea, BAB,1,26,100,1,16,2,1,1030.64,931.13, ,,,,
103,12, F, ea, DCD,1,20,104,1,17,2,1,1480.71,341.8, ,,,,
103,12, F, ea, BBB,0,25,102,1,18,2,1,571.47,2313.74, ,,,,
103,12, F, ea, CDC,1,22,98,1,19,2,1,1235.62,298.2, ,,,,
103,12, F, ea, ABA,1,24,102,1,20,2,1,1423.28,309.98, ,,,,
103,12, F, ea, DDD,0,19,98,1,21,2,1,1484.23,440.35, ,,,,
103,12, F, ea, BAB,1,26,100,1,22,2,1,949.47,257.76, ,,,,
103,12, F, ea, DDD,0,19,98,1,23,2,1,848.22,436.44, ,,,,
103,12, F, ea, ABA,1,24,102,1,24,2,1,1056.34,473.91, ,,,,
103,12, F, ea, CDC,1,22,98,1,25,2,1,1003.87,496.91, ,,,,
103,12, F, ea, ABA,1,24,102,1,26,2,1,1023.36,348.6, ,,,,
103,12, F, ea, CCC,0,21,104,1,27,2,1,1224.77,319.34, ,,,,
103,12, F, ea, BBB,0,25,102,1,28,2,1,869.34,263.04, ,,,,
103,12, F, ea, CDC,1,22,98,1,29,2,1,952.45,271.17, ,,,,
103,12, F, ea, AAA,0,23,100,1,30,2,1,487,487.85, ,,,,
103,12, F, ea, DDD,0,19,98,1,31,2,1,919.13,295.82, ,,,,
103,12, F, ea, ABA,1,24,102,1,32,2,1,692.97,312.65, ,,,,
103,12, F, ea, DDD,0,19,98,1,33,2,1,858.35,409.7, ,,,,
103,12, F, ea, ABA,1,24,102,1,34,2,1,964.9,338.2, ,,,,
103,12, F, ea, DDD,0,19,98,1,35,2,1,774.85,590.03, ,,,,
103,12, F, ea, BBB,0,25,102,1,36,2,1,1202.78,392.63, ,,,,
103,12, F, ea, CCC,0,21,104,1,37,2,1,757.19,402.64, ,,,,
103,12, F, ea, AAA,0,23,100,1,38,2,1,624.99,369.55, ,,,,
103,12, F, ea, CDC,1,22,98,1,39,2,1,924.76,303.21, ,,,,
103,12, F, ea, AAA,0,23,100,1,40,2,1,796.61,330.71, ,,,,
103,12, F, ea, DDD,0,19,98,1,41,2,1,807.85,341.27, ,,,,
103,12, F, ea, AAA,0,23,100,1,42,2,1,828.85,365.7, ,,,,
103,12, F, ea, CDC,1,22,98,1,43,2,1,1337.39,371.28, ,,,,
103,12, F, ea, BBB,0,25,102,1,44,2,1,894.63,353.91, ,,,,
103,12, F, ea, DCD,1,20,104,1,45,2,1,1229.75,298.99, ,,,,
103,12, F, ea, BBB,0,25,102,1,46,2,1,993.58,391.98, ,,,,
103,12, F, ea, CCC,0,21,104,1,47,2,1,859.27,1735.17, ,,,,
103,12, F, ea, ABA,1,24,102,1,48,2,1,1295.65,642.92, ,,,,
103,12, F, ea, CCC,0,21,104,1,49,2,1,884.93,574.36, ,,,,
103,12, F, ea, AAA,0,23,100,1,50,2,1,1027.49,616.08, ,,,,
103,12, F, ea, DDD,0,19,98,1,51,2,1,896.61,427.45, ,,,,
103,12, F, ea, BBB,0,25,102,1,52,2,1,580.52,339.07, ,,,,
103,12, F, ea, DCD,1,20,104,1,53,2,1,1409.84,470.38, ,,,,
103,12, F, ea, BAB,1,26,100,1,54,2,1,1501.41,241.92, ,,,,
103,12, F, ea, CDC,1,22,98,1,55,2,1,1004.11,264.7, ,,,,
103,12, F, ea, BBB,0,25,102,1,56,2,1,864.43,331.11, ,,,,
103,12, F, ea, CCC,0,21,104,1,57,2,1,1102.81,451.16, ,,,,
103,12, F, ea, BAB,1,26,100,1,58,2,1,1164.16,362.89, ,,,,
103,12, F, ea, CDC,1,22,98,1,59,2,1,1263.57,355.32, ,,,,
103,12, F, ea, BAB,1,26,100,1,60,2,1,1429.78,284.99, ,,,,
103,12, F, ea, CDC,1,22,98,1,61,2,1,1493.14,343.17, ,,,,
103,12, F, ea, ABA,1,24,102,1,62,2,1,1484.99,367.71, ,,,,
103,12, F, ea, DCD,1,20,104,1,63,2,1,1546.35,516.75, ,,,,
103,12, F, ea, BAB,1,26,100,1,64,2,1,1268.38,503.66, ,,,,
103,12, F, ea, CCC,0,21,104,1,65,2,1,885.3,584.65, ,,,,
103,12, F, ea, AAA,0,23,100,1,66,2,1,724.33,645.12, ,,,,
103,12, F, ea, CCC,0,21,104,1,67,2,1,850.53,553.12, ,,,,
103,12, F, ea, AAA,0,23,100,1,68,2,1,863.87,401.14, ,,,,
103,12, F, ea, DDD,0,19,98,1,69,2,1,956.73,459.31, ,,,,
103,12, F, ea, ABA,1,24,102,1,70,2,1,1492.67,511.33, ,,,,
103,12, F, ea, DDD,0,19,98,1,71,2,1,1051.22,354.41, ,,,,
103,12, F, ea, BAB,1,26,100,1,72,2,1,2190.81,431.87, ,,,,
103,12, F, ea, DCD,1,20,104,1,73,2,1,1464.88,550.48, ,,,,
103,12, F, ea, BAB,1,26,100,1,74,2,1,1568.17,651.68, ,,,,
103,12, F, ea, CCC,0,21,104,1,75,2,1,1047.3,392.96, ,,,,
103,12, F, ea, AAA,0,23,100,1,76,2,1,1811.91,962.86, ,,,,
103,12, F, ea, CCC,0,21,104,1,77,2,1,1488.29,860.34, ,,,,
103,12, F, ea, BBB,0,25,102,1,78,2,1,1501.57,512.72, ,,,,
103,12, F, ea, CCC,0,21,104,1,79,2,1,1199.82,686.04, ,,,,
103,12, F, ea, BAB,1,26,100,1,80,2,1,870.14,457, ,,,,
103,12, F, ea, DCD,1,20,104,1,81,2,1,1191.74,440.95, ,,,,
103,12, F, ea, BBB,0,25,102,1,82,2,1,1691.71,758, ,,,,
103,12, F, ea, CDC,1,22,98,1,83,2,1,1516.74,805.48, ,,,,
103,12, F, ea, AAA,0,23,100,1,84,2,1,729.75,345.04, ,,,,
103,12, F, ea, DCD,1,20,104,1,85,2,1,1518.65,416.82, ,,,,
103,12, F, ea, AAA,0,23,100,1,86,2,1,715.12,658.75, ,,,,
103,12, F, ea, DDD,0,19,98,1,87,2,1,907.24,356.85, ,,,,
103,12, F, ea, BBB,0,25,102,1,88,2,1,1785.77,433.99, ,,,,
103,12, F, ea, DDD,0,19,98,1,89,2,1,868.72,527.05, ,,,,
103,12, F, ea, ABA,1,24,102,1,90,2,1,1573.53,1213.22, ,,,,
103,12, F, ea, CCC,0,21,104,1,91,2,1,1367.82,849.19, ,,,,
103,12, F, ea, ABA,1,24,102,1,92,2,1,1473.7,904.29, ,,,,
103,12, F, ea, CCC,0,21,104,1,93,2,1,1452.02,300.48, ,,,,
103,12, F, ea, BAB,1,26,100,1,94,2,1,1043.41,432.06, ,,,,
103,12, F, ea, DCD,1,20,104,1,95,2,1,1328.39,386.25, ,,,,
103,12, F, ea, AAA,0,23,100,1,96,2,1,1279.11,1537.6, ,,,,
103,12, F, ea, DDD,0,19,98,1,97,2,1,984.13,656.29, ,,,,
103,12, F, ea, CDC,1,22,98,1,1,3,1,1128.17,457.68, ,,,,
103,12, F, ea, ABA,1,24,102,1,2,3,1,1164.47,474.05, ,,,,
103,12, F, ea, DCD,1,20,104,1,3,3,1,1053.44,774.94, ,,,,
103,12, F, ea, AAA,0,23,100,1,4,3,1,906.63,252.42, ,,,,
103,12, F, ea, DDD,0,19,98,1,5,3,1,1003.89,1578.29, ,,,,
103,12, F, ea, BAB,1,26,100,1,6,3,1,1072.78,372.18, ,,,,
103,12, F, ea, DCD,1,20,104,1,7,3,1,1159.74,488.22, ,,,,
103,12, F, ea, BBB,0,25,102,1,8,3,1,1089.47,426.54, ,,,,
103,12, F, ea, CDC,1,22,98,1,9,3,1,1060.23,895.97, ,,,,
103,12, F, ea, BAB,1,26,100,1,10,3,1,950.75,295.93, ,,,,
103,12, F, ea, CCC,0,21,104,1,11,3,1,908.81,264.66, ,,,,
103,12, F, ea, AAA,0,23,100,1,12,3,1,1064.75,843.51, ,,,,
103,12, F, ea, DDD,0,19,98,1,13,3,1,1335.18,366.87, ,,,,
103,12, F, ea, BAB,1,26,100,1,14,3,1,1460.16,806.46, ,,,,
103,12, F, ea, CCC,0,21,104,1,15,3,1,961.22,314.02, ,,,,
103,12, F, ea, ABA,1,24,102,1,16,3,1,1519.25,289.65, ,,,,
103,12, F, ea, CDC,1,22,98,1,17,3,1,1129.43,425.67, ,,,,
103,12, F, ea, BBB,0,25,102,1,18,3,1,1452.03,344.66, ,,,,
103,12, F, ea, DCD,1,20,104,1,19,3,1,1540.76,359.89, ,,,,
103,12, F, ea, ABA,1,24,102,1,20,3,1,1348.01,420.72, ,,,,
103,12, F, ea, DDD,0,19,98,1,21,3,1,1770.11,919.92, ,,,,
103,12, F, ea, AAA,0,23,100,1,22,3,1,814.38,675.14, ,,,,
103,12, F, ea, DCD,1,20,104,1,23,3,1,1219.01,593.59, ,,,,
103,12, F, ea, AAA,0,23,100,1,24,3,1,1156.15,524.57, ,,,,
103,12, F, ea, CCC,0,21,104,1,25,3,1,1001.65,433.42, ,,,,
103,12, F, ea, BAB,1,26,100,1,26,3,1,1244.02,310.8, ,,,,
103,12, F, ea, CCC,0,21,104,1,27,3,1,947.28,324.17, ,,,,
103,12, F, ea, BBB,0,25,102,1,28,3,1,985.05,984.34, ,,,,
103,12, F, ea, CDC,1,22,98,1,29,3,1,1222.52,1140, ,,,,
103,12, F, ea, ABA,1,24,102,1,30,3,1,1394.62,306.08, ,,,,
103,12, F, ea, CCC,0,21,104,1,31,3,1,1230.29,260.8, ,,,,
103,12, F, ea, AAA,0,23,100,1,32,3,1,1257.34,369.81, ,,,,
103,12, F, ea, DCD,1,20,104,1,33,3,1,1637.98,1043.62, ,,,,
103,12, F, ea, ABA,1,24,102,1,34,3,1,1549.33,487.61, ,,,,
103,12, F, ea, CDC,1,22,98,1,35,3,1,1374.88,366.53, ,,,,
103,12, F, ea, ABA,1,24,102,1,36,3,1,1347.9,355.25, ,,,,
103,12, F, ea, CCC,0,21,104,1,37,3,1,1288.64,372, ,,,,
103,12, F, ea, BAB,1,26,100,1,38,3,1,1058.32,403.17, ,,,,
103,12, F, ea, DDD,0,19,98,1,39,3,1,1087.29,360.59, ,,,,
103,12, F, ea, BBB,0,25,102,1,40,3,1,1229.14,961.68, ,,,,
103,12, F, ea, CCC,0,21,104,1,41,3,1,1055.93,435.74, ,,,,
103,12, F, ea, BBB,0,25,102,1,42,3,1,1091.25,312.3, ,,,,
103,12, F, ea, CDC,1,22,98,1,43,3,1,964.7,292.74, ,,,,
103,12, F, ea, ABA,1,24,102,1,44,3,1,1692.37,983.55, ,,,,
103,12, F, ea, DDD,0,19,98,1,45,3,1,957.29,373.1, ,,,,
103,12, F, ea, AAA,0,23,100,1,46,3,1,607.38,332.85, ,,,,
103,12, F, ea, DDD,0,19,98,1,47,3,1,907.56,299.51, ,,,,
103,12, F, ea, BAB,1,26,100,1,48,3,1,929.55,298.35, ,,,,
103,12, F, ea, DCD,1,20,104,1,49,3,1,1150.94,305.09, ,,,,
103,12, F, ea, AAA,0,23,100,1,50,3,1,744.49,432.29, ,,,,
103,12, F, ea, DCD,1,20,104,1,51,3,1,903.3,314.14, ,,,,
103,12, F, ea, AAA,0,23,100,1,52,3,1,718.52,280.37, ,,,,
103,12, F, ea, CDC,1,22,98,1,53,3,1,1016.03,309.01, ,,,,
103,12, F, ea, AAA,0,23,100,1,54,3,1,994.58,385.08, ,,,,
103,12, F, ea, DCD,1,20,104,1,55,3,1,1125.81,397.78, ,,,,
103,12, F, ea, BBB,0,25,102,1,56,3,1,705.47,337.41, ,,,,
103,12, F, ea, DDD,0,19,98,1,57,3,1,861.62,338.18, ,,,,
103,12, F, ea, BBB,0,25,102,1,58,3,1,991.7,357.14, ,,,,
103,12, F, ea, CDC,1,22,98,1,59,3,1,873.22,292.56, ,,,,
103,12, F, ea, BBB,0,25,102,1,60,3,1,603.77,560.38, ,,,,
103,12, F, ea, CDC,1,22,98,1,61,3,1,989.84,299.8, ,,,,
103,12, F, ea, ABA,1,24,102,1,62,3,1,1312.39,732.52, ,,,,
103,12, F, ea, CCC,0,21,104,1,63,3,1,867.33,396.83, ,,,,
103,12, F, ea, BAB,1,26,100,1,64,3,1,853.59,298.93, ,,,,
103,12, F, ea, DDD,0,19,98,1,65,3,1,698.71,275.19, ,,,,
103,12, F, ea, BAB,1,26,100,1,66,3,1,1044.24,1198.66, ,,,,
103,12, F, ea, DCD,1,20,104,1,67,3,1,1261.13,447.44, ,,,,
103,12, F, ea, ABA,1,24,102,1,68,3,1,1177.83,399.23, ,,,,
103,12, F, ea, DCD,1,20,104,1,69,3,1,1053.71,286.72, ,,,,
103,12, F, ea, ABA,1,24,102,1,70,3,1,965.85,452.88, ,,,,
103,12, F, ea, CCC,0,21,104,1,71,3,1,754.99,315.91, ,,,,
103,12, F, ea, AAA,0,23,100,1,72,3,1,688.87,323.53, ,,,,
103,12, F, ea, CDC,1,22,98,1,73,3,1,1059.18,461.36, ,,,,
103,12, F, ea, ABA,1,24,102,1,74,3,1,1374.68,557.55, ,,,,
103,12, F, ea, CDC,1,22,98,1,75,3,1,1043.26,551.13, ,,,,
103,12, F, ea, BAB,1,26,100,1,76,3,1,1037.07,721.02, ,,,,
103,12, F, ea, CCC,0,21,104,1,77,3,1,832.31,308.93, ,,,,
103,12, F, ea, BBB,0,25,102,1,78,3,1,514.47,474.85, ,,,,
103,12, F, ea, DCD,1,20,104,1,79,3,1,1010.98,393.18, ,,,,
103,12, F, ea, BBB,0,25,102,1,80,3,1,1153.36,331.04, ,,,,
103,12, F, ea, DDD,0,19,98,1,81,3,1,920.1,233.34, ,,,,
103,12, F, ea, AAA,0,23,100,1,82,3,1,317.8,721.42, ,,,,
103,12, F, ea, CCC,0,21,104,1,83,3,1,802.47,285.87, ,,,,
103,12, F, ea, BAB,1,26,100,1,84,3,1,1020.51,275.05, ,,,,
103,12, F, ea, DDD,0,19,98,1,85,3,1,875.5,349.32, ,,,,
103,12, F, ea, AAA,0,23,100,1,86,3,1,977.41,288, ,,,,
103,12, F, ea, CCC,0,21,104,1,87,3,1,800.43,477.18, ,,,,
103,12, F, ea, BBB,0,25,102,1,88,3,1,955.35,331.66, ,,,,
103,12, F, ea, DDD,0,19,98,1,89,3,1,1089.76,419.66, ,,,,
103,12, F, ea, BAB,1,26,100,1,90,3,1,1085.07,441.22, ,,,,
103,12, F, ea, CDC,1,22,98,1,91,3,1,1053.55,374.52, ,,,,
103,12, F, ea, ABA,1,24,102,1,92,3,1,1314.59,308.78, ,,,,
103,12, F, ea, CDC,1,22,98,1,93,3,1,1300.82,484.74, ,,,,
103,12, F, ea, BBB,0,25,102,1,94,3,1,1387.78,292.87, ,,,,
103,12, F, ea, DDD,0,19,98,1,95,3,1,761.93,353.65, ,,,,
103,12, F, ea, BAB,1,26,100,1,96,3,1,877.36,393.74, ,,,,
103,12, F, ea, DCD,1,20,104,1,97,3,1,1395.33,835.12, ,,,,
104,25, F, adult, DCD,1,20,104,1,1,1,1,559.59,370.48, ,,,,
104,25, F, adult, AAA,0,23,100,1,2,1,1,430.26,13.21, ,,,,
104,25, F, adult, CCC,0,21,104,1,3,1,1,466.91,224.45, ,,,,
104,25, F, adult, BBB,0,25,102,1,4,1,1,399.16,152.75, ,,,,
104,25, F, adult, CCC,0,21,104,1,5,1,1,402.33,0.41, ,,,,
104,25, F, adult, BBB,0,25,102,1,6,1,1,394.31,204.17, ,,,,
104,25, F, adult, DDD,0,19,98,1,7,1,1,474.65,257.54, ,,,,
104,25, F, adult, ABA,1,24,100,1,8,1,0,383.6,568.86, ,,,,
104,25, F, adult, CCC,0,21,104,1,9,1,1,513.45,285.95, ,,,,
104,25, F, adult, BBB,0,25,102,1,10,1,1,378.43,228.3, ,,,,
104,25, F, adult, CDC,1,22,98,1,11,1,1,666.4,305.35, ,,,,
104,25, F, adult, AAA,0,23,100,1,12,1,1,540.6,240.89, ,,,,
104,25, F, adult, DCD,1,20,104,1,13,1,1,536.21,242.11, ,,,,
104,25, F, adult, BBB,0,25,102,1,14,1,1,344.13,195.77, ,,,,
104,25, F, adult, CDC,1,22,98,1,15,1,1,634.04,146.93, ,,,,
104,25, F, adult, ABA,1,24,102,1,16,1,1,660.46,275.26, ,,,,
104,25, F, adult, CCC,0,21,104,1,17,1,1,480.85,182.29, ,,,,
104,25, F, adult, ABA,1,24,102,1,18,1,1,684.99,180.67, ,,,,
104,25, F, adult, DCD,1,20,104,1,19,1,1,803.37,229.21, ,,,,
104,25, F, adult, AAA,0,23,100,1,20,1,1,595.33,229.23, ,,,,
104,25, F, adult, DDD,0,19,98,1,21,1,1,652.1,226.52, ,,,,
104,25, F, adult, BAB,1,26,100,1,22,1,1,577.38,107.51, ,,,,
104,25, F, adult, DDD,0,19,98,1,23,1,1,847.12,175.02, ,,,,
104,25, F, adult, BAB,1,26,100,1,24,1,1,576.18,361.66, ,,,,
104,25, F, adult, DCD,1,20,104,1,25,1,1,585.92,292.67, ,,,,
104,25, F, adult, ABA,1,24,102,1,26,1,1,674.22,207.06, ,,,,
104,25, F, adult, DDD,0,19,98,1,27,1,1,638.21,262.01, ,,,,
104,25, F, adult, ABA,1,24,102,1,28,1,1,570.76,245.89, ,,,,
104,25, F, adult, CDC,1,22,98,1,29,1,1,562.39,78.3, ,,,,
104,25, F, adult, BAB,1,26,100,1,30,1,1,545.9,223.11, ,,,,
104,25, F, adult, CDC,1,22,98,1,31,1,1,493.06,202.92, ,,,,
104,25, F, adult, AAA,0,23,100,1,32,1,1,491.17,192.65, ,,,,
104,25, F, adult, DCD,1,20,104,1,33,1,1,540.77,68.44, ,,,,
104,25, F, adult, BBB,0,25,102,1,34,1,1,465.92,198.6, ,,,,
104,25, F, adult, CCC,0,21,104,1,35,1,1,406.46,199.56, ,,,,
104,25, F, adult, BAB,1,26,100,1,36,1,1,506.41,211.7, ,,,,
104,25, F, adult, DDD,0,19,98,1,37,1,1,737.87,223.14, ,,,,
104,25, F, adult, BBB,0,25,102,1,38,1,1,468.27,203.4, ,,,,
104,25, F, adult, CCC,0,21,104,1,39,1,1,474.38,217.17, ,,,,
104,25, F, adult, BAB,1,26,100,1,40,1,1,548.96,59.28, ,,,,
104,25, F, adult, DDD,0,19,98,1,41,1,1,566.76,115.14, ,,,,
104,25, F, adult, AAA,0,23,100,1,42,1,1,546.97,73.59, ,,,,
104,25, F, adult, CDC,1,22,98,1,43,1,1,597.25,223.32, ,,,,
104,25, F, adult, BAB,1,26,100,1,44,1,1,495.29,243.71, ,,,,
104,25, F, adult, DCD,1,20,104,1,45,1,1,561.44,221.53, ,,,,
104,25, F, adult, AAA,0,23,100,1,46,1,1,466.9,210.11, ,,,,
104,25, F, adult, CDC,1,22,98,1,47,1,1,681.68,286.79, ,,,,
104,25, F, adult, BAB,1,26,100,1,48,1,1,490.17,264.33, ,,,,
104,25, F, adult, CCC,0,21,104,1,49,1,1,534.72,216.81, ,,,,
104,25, F, adult, BBB,0,25,102,1,50,1,1,438.35,87.64, ,,,,
104,25, F, adult, DDD,0,19,98,1,51,1,1,475.9,193.4, ,,,,
104,25, F, adult, AAA,0,23,100,1,52,1,1,386.86,219.23, ,,,,
104,25, F, adult, CCC,0,21,104,1,53,1,1,426.77,90.19, ,,,,
104,25, F, adult, AAA,0,23,100,1,54,1,1,417.56,134.57, ,,,,
104,25, F, adult, DDD,0,19,98,1,55,1,1,609.41,73.54, ,,,,
104,25, F, adult, ABA,1,24,102,1,56,1,1,591,161.17, ,,,,
104,25, F, adult, DCD,1,20,104,1,57,1,1,489.95,47.03, ,,,,
104,25, F, adult, ABA,1,24,102,1,58,1,1,419.35,212.88, ,,,,
104,25, F, adult, CCC,0,21,104,1,59,1,1,440.18,123.44, ,,,,
104,25, F, adult, AAA,0,23,100,1,60,1,1,544.53,137.27, ,,,,
104,25, F, adult, DCD,1,20,104,1,61,1,1,533.97,103.55, ,,,,
104,25, F, adult, AAA,0,23,100,1,62,1,1,498.65,271.46, ,,,,
104,25, F, adult, DDD,0,19,98,1,63,1,1,535.06,63.76, ,,,,
104,25, F, adult, BAB,1,26,100,1,64,1,1,538.39,151.99, ,,,,
104,25, F, adult, DCD,1,20,104,1,65,1,1,538.14,0.4, ,,,,
104,25, F, adult, ABA,1,24,102,1,66,1,1,485.68,82.08, ,,,,
104,25, F, adult, DCD,1,20,104,1,67,1,1,470.55,28.73, ,,,,
104,25, F, adult, BAB,1,26,100,1,68,1,1,518.02,119.3, ,,,,
104,25, F, adult, DCD,1,20,104,1,69,1,1,530.98,157.02, ,,,,
104,25, F, adult, ABA,1,24,102,1,70,1,1,466.06,189.38, ,,,,
104,25, F, adult, CDC,1,22,98,1,71,1,1,642.73,100.46, ,,,,
104,25, F, adult, BAB,1,26,100,1,72,1,1,455.62,190.93, ,,,,
104,25, F, adult, DDD,0,19,98,1,73,1,1,566.62,89.89, ,,,,
104,25, F, adult, AAA,0,23,100,1,74,1,1,516.85,50.09, ,,,,
104,25, F, adult, DCD,1,20,104,1,75,1,1,518.78,36.15, ,,,,
104,25, F, adult, BBB,0,25,102,1,76,1,1,564.02,124.35, ,,,,
104,25, F, adult, CCC,0,21,104,1,77,1,1,413.56,151.98, ,,,,
104,25, F, adult, BBB,0,25,102,1,78,1,1,466.18,167.65, ,,,,
104,25, F, adult, CDC,1,22,98,1,79,1,1,609.03,314.12, ,,,,
104,25, F, adult, ABA,1,24,102,1,80,1,1,571.58,159.71, ,,,,
104,25, F, adult, DDD,0,19,98,1,81,1,1,616.76,264.87, ,,,,
104,25, F, adult, BBB,0,25,102,1,82,1,1,431.4,124.55, ,,,,
104,25, F, adult, DDD,0,19,98,1,83,1,1,454.6,0.41, ,,,,
104,25, F, adult, BAB,1,26,100,1,84,1,1,493.84,51.25, ,,,,
104,25, F, adult, CDC,1,22,98,1,85,1,1,609.92,241.52, ,,,,
104,25, F, adult, AAA,0,23,100,1,86,1,1,408.15,152.56, ,,,,
104,25, F, adult, CDC,1,22,98,1,87,1,1,625.5,106.29, ,,,,
104,25, F, adult, BAB,1,26,100,1,88,1,1,458.49,124.54, ,,,,
104,25, F, adult, CCC,0,21,104,1,89,1,1,488.27,212.95, ,,,,
104,25, F, adult, ABA,1,24,102,1,90,1,1,573.04,0.42, ,,,,
104,25, F, adult, CCC,0,21,104,1,91,1,1,430.42,0.41, ,,,,
104,25, F, adult, ABA,1,24,102,1,92,1,1,541.11,0.4, ,,,,
104,25, F, adult, DCD,1,20,104,1,93,1,1,568.51,194.39, ,,,,
104,25, F, adult, BBB,0,25,102,1,94,1,1,513.63,143.29, ,,,,
104,25, F, adult, CDC,1,22,98,1,95,1,1,542.61,229.77, ,,,,
104,25, F, adult, BBB,0,25,102,1,96,1,1,394.48,212.72, ,,,,
104,25, F, adult, CDC,1,22,98,1,97,1,1,499.29,64.46, ,,,,
104,25, F, adult, CDC,1,22,98,1,1,2,1,889.49,391.72, ,,,,
104,25, F, adult, BBB,0,25,102,1,2,2,1,360.49,0.4, ,,,,
104,25, F, adult, CCC,0,21,104,1,3,2,1,432.84,185.73, ,,,,
104,25, F, adult, BBB,0,25,102,1,4,2,1,507.73,175.08, ,,,,
104,25, F, adult, DDD,0,19,98,1,5,2,1,541.69,243.06, ,,,,
104,25, F, adult, BBB,0,25,102,1,6,2,1,358.27,221.16, ,,,,
104,25, F, adult, CCC,0,21,104,1,7,2,1,419.27,195.16, ,,,,
104,25, F, adult, BAB,1,26,100,1,8,2,1,570.06,206.18, ,,,,
104,25, F, adult, CDC,1,22,98,1,9,2,1,589.21,215.26, ,,,,
104,25, F, adult, BBB,0,25,102,1,10,2,1,387.88,134.98, ,,,,
104,25, F, adult, DCD,1,20,104,1,11,2,1,600.75,225.93, ,,,,
104,25, F, adult, BBB,0,25,102,1,12,2,1,384.42,242.41, ,,,,
104,25, F, adult, CDC,1,22,98,1,13,2,1,675.12,127.16, ,,,,
104,25, F, adult, BBB,0,25,102,1,14,2,1,448.34,224.3, ,,,,
104,25, F, adult, DDD,0,19,98,1,15,2,1,663.58,0.4, ,,,,
104,25, F, adult, BBB,0,25,102,1,16,2,1,421.83,197.75, ,,,,
104,25, F, adult, DCD,1,20,104,1,17,2,1,628.77,229.89, ,,,,
104,25, F, adult, AAA,0,23,100,1,18,2,1,362.24,198.92, ,,,,
104,25, F, adult, DCD,1,20,104,1,19,2,1,547.53,249.61, ,,,,
104,25, F, adult, ABA,1,24,102,1,20,2,1,582.59,120.53, ,,,,
104,25, F, adult, DDD,0,19,98,1,21,2,1,550.94,222.16, ,,,,
104,25, F, adult, BAB,1,26,100,1,22,2,1,523.03,289.74, ,,,,
104,25, F, adult, CCC,0,21,104,1,23,2,1,431.02,165.72, ,,,,
104,25, F, adult, BAB,1,26,100,1,24,2,1,358.01,145.34, ,,,,
104,25, F, adult, DCD,1,20,104,1,25,2,1,525.01,87.64, ,,,,
104,25, F, adult, ABA,1,24,102,1,26,2,1,482.82,169.39, ,,,,
104,25, F, adult, CDC,1,22,98,1,27,2,1,664.92,168.43, ,,,,
104,25, F, adult, BBB,0,25,102,1,28,2,1,424.39,1.67, ,,,,
104,25, F, adult, CCC,0,21,104,1,29,2,1,488.27,158.42, ,,,,
104,25, F, adult, AAA,0,23,100,1,30,2,1,527.4,61.26, ,,,,
104,25, F, adult, CDC,1,22,98,1,31,2,1,570.76,171.78, ,,,,
104,25, F, adult, ABA,1,24,102,1,32,2,1,537.56,248.77, ,,,,
104,25, F, adult, CCC,0,21,104,1,33,2,1,403.42,0.41, ,,,,
104,25, F, adult, ABA,1,24,102,1,34,2,1,451.5,220.86, ,,,,
104,25, F, adult, CCC,0,21,104,1,35,2,1,500.53,128.51, ,,,,
104,25, F, adult, BAB,1,26,100,1,36,2,1,544.49,166.86, ,,,,
104,25, F, adult, DDD,0,19,98,1,37,2,1,632.01,255.28, ,,,,
104,25, F, adult, AAA,0,23,100,1,38,2,1,572.46,110.96, ,,,,
104,25, F, adult, CCC,0,21,104,1,39,2,1,555.18,229.29, ,,,,
104,25, F, adult, AAA,0,23,100,1,40,2,1,475.61,265.74, ,,,,
104,25, F, adult, DCD,1,20,104,1,41,2,1,509.92,211.43, ,,,,
104,25, F, adult, ABA,1,24,102,1,42,2,1,404.14,51.74, ,,,,
104,25, F, adult, CDC,1,22,98,1,43,2,1,583.64,170.68, ,,,,
104,25, F, adult, AAA,0,23,100,1,44,2,1,386.57,101.75, ,,,,
104,25, F, adult, CCC,0,21,104,1,45,2,1,395.71,90, ,,,,
104,25, F, adult, BAB,1,26,100,1,46,2,1,442.47,70.38, ,,,,
104,25, F, adult, CCC,0,21,104,1,47,2,1,410.25,0.4, ,,,,
104,25, F, adult, ABA,1,24,102,1,48,2,1,506.79,135.83, ,,,,
104,25, F, adult, DDD,0,19,98,1,49,2,1,497.31,95.32, ,,,,
104,25, F, adult, AAA,0,23,100,1,50,2,1,365.06,198.29, ,,,,
104,25, F, adult, CDC,1,22,98,1,51,2,1,641.2,0.41, ,,,,
104,25, F, adult, BAB,1,26,100,1,52,2,1,404.64,157.22, ,,,,
104,25, F, adult, DDD,0,19,98,1,53,2,1,623.65,0.4, ,,,,
104,25, F, adult, BAB,1,26,100,1,54,2,1,405.15,119.22, ,,,,
104,25, F, adult, DDD,0,19,98,1,55,2,1,482.85,175.54, ,,,,
104,25, F, adult, AAA,0,23,100,1,56,2,1,344.06,196.25, ,,,,
104,25, F, adult, DDD,0,19,98,1,57,2,1,475.3,241.25, ,,,,
104,25, F, adult, BAB,1,26,100,1,58,2,1,336.26,227.57, ,,,,
104,25, F, adult, CDC,1,22,98,1,59,2,1,569.65,0.41, ,,,,
104,25, F, adult, ABA,1,24,102,1,60,2,1,538.78,256, ,,,,
104,25, F, adult, CDC,1,22,98,1,61,2,1,475.65,115.29, ,,,,
104,25, F, adult, BAB,1,26,100,1,62,2,1,407.17,62.62, ,,,,
104,25, F, adult, CDC,1,22,98,1,63,2,1,542.7,175.67, ,,,,
104,25, F, adult, AAA,0,23,100,1,64,2,1,424.07,104.02, ,,,,
104,25, F, adult, DDD,0,19,98,1,65,2,1,546.76,119.97, ,,,,
104,25, F, adult, AAA,0,23,100,1,66,2,1,371.03,0.42, ,,,,
104,25, F, adult, DCD,1,20,104,1,67,2,1,652.03,266.88, ,,,,
104,25, F, adult, BBB,0,25,102,1,68,2,1,391.73,137.41, ,,,,
104,25, F, adult, DCD,1,20,104,1,69,2,1,595.18,221.61, ,,,,
104,25, F, adult, AAA,0,23,100,1,70,2,1,372.2,61.42, ,,,,
104,25, F, adult, DCD,1,20,104,1,71,2,1,475.71,113.81, ,,,,
104,25, F, adult, AAA,0,23,100,1,72,2,1,426.75,60.12, ,,,,
104,25, F, adult, DDD,0,19,98,1,73,2,1,506.41,0.4, ,,,,
104,25, F, adult, ABA,1,24,102,1,74,2,1,544.8,130.13, ,,,,
104,25, F, adult, DDD,0,19,98,1,75,2,1,579.21,53.99, ,,,,
104,25, F, adult, ABA,1,24,102,1,76,2,1,506.4,40.17, ,,,,
104,25, F, adult, CCC,0,21,104,1,77,2,1,414.8,190.54, ,,,,
104,25, F, adult, BBB,0,25,102,1,78,2,1,402.89,192.21, ,,,,
104,25, F, adult, DDD,0,19,98,1,79,2,1,574.41,81.9, ,,,,
104,25, F, adult, BBB,0,25,102,1,80,2,1,429.86,198.69, ,,,,
104,25, F, adult, CDC,1,22,98,1,81,2,1,582.62,0.4, ,,,,
104,25, F, adult, ABA,1,24,102,1,82,2,1,613.51,199.47, ,,,,
104,25, F, adult, DCD,1,20,104,1,83,2,1,567.58,49.44, ,,,,
104,25, F, adult, ABA,1,24,102,1,84,2,1,462.54,205.63, ,,,,
104,25, F, adult, CCC,0,21,104,1,85,2,1,430.63,173.78, ,,,,
104,25, F, adult, BBB,0,25,102,1,86,2,1,303.83,52.2, ,,,,
104,25, F, adult, DCD,1,20,104,1,87,2,1,488.91,501.88, ,,,,
104,25, F, adult, BAB,1,26,100,1,88,2,1,577.06,155.79, ,,,,
104,25, F, adult, CDC,1,22,98,1,89,2,1,588.79,0.4, ,,,,
104,25, F, adult, BAB,1,26,100,1,90,2,1,478.51,260.89, ,,,,
104,25, F, adult, CDC,1,22,98,1,91,2,1,544.27,213.46, ,,,,
104,25, F, adult, AAA,0,23,100,1,92,2,1,498.61,345.56, ,,,,
104,25, F, adult, CCC,0,21,104,1,93,2,1,498.65,0.41, ,,,,
104,25, F, adult, ABA,1,24,102,1,94,2,1,530.04,188.45, ,,,,
104,25, F, adult, DCD,1,20,104,1,95,2,1,572.24,86.81, ,,,,
104,25, F, adult, BAB,1,26,100,1,96,2,1,426.17,194.43, ,,,,
104,25, F, adult, DCD,1,20,104,1,97,2,1,491.21,160.23, ,,,,
104,25, F, adult, CDC,1,22,98,1,1,3,1,523.05,719.52, ,,,,
104,25, F, adult, ABA,1,24,102,1,2,3,1,469.59,288.53, ,,,,
104,25, F, adult, CDC,1,22,98,1,3,3,1,509.26,217.66, ,,,,
104,25, F, adult, BAB,1,26,100,1,4,3,1,432.43,71.96, ,,,,
104,25, F, adult, CDC,1,22,98,1,5,3,1,498.84,241.67, ,,,,
104,25, F, adult, BAB,1,26,100,1,6,3,1,386.23,153.26, ,,,,
104,25, F, adult, CCC,0,21,104,1,7,3,1,438.77,74.29, ,,,,
104,25, F, adult, ABA,1,24,102,1,8,3,1,478.2,61.36, ,,,,
104,25, F, adult, CDC,1,22,98,1,9,3,1,533.3,46.4, ,,,,
104,25, F, adult, BBB,0,25,102,1,10,3,1,363.56,263.6, ,,,,
104,25, F, adult, DDD,0,19,98,1,11,3,1,411.99,36.35, ,,,,
104,25, F, adult, AAA,0,23,100,1,12,3,1,418.35,99.19, ,,,,
104,25, F, adult, DDD,0,19,98,1,13,3,1,471.23,4.51, ,,,,
104,25, F, adult, AAA,0,23,100,1,14,3,1,442.41,3.38, ,,,,
104,25, F, adult, CCC,0,21,104,1,15,3,1,541.34,23.81, ,,,,
104,25, F, adult, BAB,1,26,102,1,16,3,0,302.17,450.57, ,,,,
104,25, F, adult, DDD,0,19,98,1,17,3,1,488.17,0.41, ,,,,
104,25, F, adult, ABA,1,24,102,1,18,3,1,500.81,89.86, ,,,,
104,25, F, adult, DCD,1,20,104,1,19,3,1,555.55,240.77, ,,,,
104,25, F, adult, AAA,0,23,100,1,20,3,1,406.69,136.51, ,,,,
104,25, F, adult, CCC,0,21,104,1,21,3,1,533.55,0.4, ,,,,
104,25, F, adult, BBB,0,25,102,1,22,3,1,390.21,142.56, ,,,,
104,25, F, adult, DCD,1,20,104,1,23,3,1,527.19,220.49, ,,,,
104,25, F, adult, AAA,0,23,100,1,24,3,1,412.21,140.61, ,,,,
104,25, F, adult, CCC,0,21,104,1,25,3,1,442.87,0.42, ,,,,
104,25, F, adult, AAA,0,23,100,1,26,3,1,348.91,248.58, ,,,,
104,25, F, adult, DCD,1,20,104,1,27,3,1,566.7,199.85, ,,,,
104,25, F, adult, BAB,1,26,100,1,28,3,1,470.04,197.42, ,,,,
104,25, F, adult, DCD,1,20,104,1,29,3,1,499.41,186.45, ,,,,
104,25, F, adult, BAB,1,26,100,1,30,3,1,450.36,192.96, ,,,,
104,25, F, adult, CCC,0,21,104,1,31,3,1,401.72,25.99, ,,,,
104,25, F, adult, BAB,1,26,100,1,32,3,1,424.25,26.67, ,,,,
104,25, F, adult, DDD,0,19,98,1,33,3,1,536.43,0.41, ,,,,
104,25, F, adult, BBB,0,25,102,1,34,3,1,483.63,56.27, ,,,,
104,25, F, adult, CDC,1,22,98,1,35,3,1,565.39,0.4, ,,,,
104,25, F, adult, BBB,0,25,102,1,36,3,1,448.28,16.09, ,,,,
104,25, F, adult, CDC,1,22,98,1,37,3,1,603.28,38.27, ,,,,
104,25, F, adult, ABA,1,24,102,1,38,3,1,620.87,61.07, ,,,,
104,25, F, adult, DCD,1,20,104,1,39,3,1,530.16,0.41, ,,,,
104,25, F, adult, BAB,1,26,100,1,40,3,1,494.97,27.02, ,,,,
104,25, F, adult, DDD,0,19,98,1,41,3,1,554.85,132.56, ,,,,
104,25, F, adult, AAA,0,23,100,1,42,3,1,545.63,27.47, ,,,,
104,25, F, adult, DCD,1,20,104,1,43,3,1,513.78,86.36, ,,,,
104,25, F, adult, BBB,0,25,102,1,44,3,1,413.47,59.08, ,,,,
104,25, F, adult, CCC,0,21,104,1,45,3,1,415.83,176.64, ,,,,
104,25, F, adult, ABA,1,24,102,1,46,3,1,498.53,62.94, ,,,,
104,25, F, adult, DDD,0,19,98,1,47,3,1,498.36,0.4, ,,,,
104,25, F, adult, BAB,1,26,100,1,48,3,1,445.61,55.47, ,,,,
104,25, F, adult, CDC,1,22,98,1,49,3,1,572.03,0.42, ,,,,
104,25, F, adult, ABA,1,24,102,1,50,3,1,457.83,0.43, ,,,,
104,25, F, adult, CCC,0,21,104,1,51,3,1,408.05,0.43, ,,,,
104,25, F, adult, AAA,0,23,100,1,52,3,1,411.78,15.5, ,,,,
104,25, F, adult, DDD,0,19,98,1,53,3,1,524.77,10.48, ,,,,
104,25, F, adult, BBB,0,25,102,1,54,3,1,360.51,35.08, ,,,,
104,25, F, adult, CDC,1,22,98,1,55,3,1,496.63,0.43, ,,,,
104,25, F, adult, BAB,1,26,100,1,56,3,1,886.22,411.62, ,,,,
104,25, F, adult, DDD,0,19,98,1,57,3,1,645.58,395.4, ,,,,
104,25, F, adult, ABA,1,24,102,1,58,3,1,554.42,31, ,,,,
104,25, F, adult, DDD,0,19,98,1,59,3,1,468.18,146.93, ,,,,
104,25, F, adult, BAB,1,26,100,1,60,3,1,523,40.69, ,,,,
104,25, F, adult, CCC,0,21,104,1,61,3,1,376.04,17.99, ,,,,
104,25, F, adult, BBB,0,25,102,1,62,3,1,387.31,177.03, ,,,,
104,25, F, adult, CCC,0,21,104,1,63,3,1,384.96,0.42, ,,,,
104,25, F, adult, AAA,0,23,100,1,64,3,1,405.21,44.89, ,,,,
104,25, F, adult, CDC,1,22,98,1,65,3,1,688.86,0.42, ,,,,
104,25, F, adult, AAA,0,23,100,1,66,3,1,373.49,135.83, ,,,,
104,25, F, adult, DCD,1,20,104,1,67,3,1,593.92,0.4, ,,,,
104,25, F, adult, AAA,0,23,100,1,68,3,1,349.32,93.86, ,,,,
104,25, F, adult, DCD,1,20,104,1,69,3,1,560.08,38.46, ,,,,
104,25, F, adult, BBB,0,25,102,1,70,3,1,388.63,172.53, ,,,,
104,25, F, adult, CCC,0,21,104,1,71,3,1,365.32,0.41, ,,,,
104,25, F, adult, BAB,1,26,100,1,72,3,1,464.39,0.41, ,,,,
104,25, F, adult, CDC,1,22,98,1,73,3,1,542.1,0.4, ,,,,
104,25, F, adult, AAA,0,23,100,1,74,3,1,471.75,0.4, ,,,,
104,25, F, adult, CDC,1,22,98,1,75,3,1,550.79,0.46, ,,,,
104,25, F, adult, BBB,0,25,102,1,76,3,1,529.88,117.07, ,,,,
104,25, F, adult, CCC,0,21,104,1,77,3,1,456.01,0.4, ,,,,
104,25, F, adult, BAB,1,26,100,1,78,3,1,493.62,0.4, ,,,,
104,25, F, adult, DCD,1,20,104,1,79,3,1,555.24,453.62, ,,,,
104,25, F, adult, AAA,0,23,100,1,80,3,1,404.07,196.58, ,,,,
104,25, F, adult, CCC,0,21,104,1,81,3,1,418.5,0.4, ,,,,
104,25, F, adult, BBB,0,25,102,1,82,3,1,410.57,163.87, ,,,,
104,25, F, adult, DDD,0,19,98,1,83,3,1,516.24,465.51, ,,,,
104,25, F, adult, ABA,1,24,102,1,84,3,1,611.84,231.21, ,,,,
104,25, F, adult, DDD,0,19,98,1,85,3,1,536.71,89, ,,,,
104,25, F, adult, ABA,1,24,102,1,86,3,1,452.48,227.44, ,,,,
104,25, F, adult, DCD,1,20,104,1,87,3,1,571.49,76.5, ,,,,
104,25, F, adult, BBB,0,25,102,1,88,3,1,388.05,4.54, ,,,,
104,25, F, adult, DDD,0,19,98,1,89,3,1,535.1,0.42, ,,,,
104,25, F, adult, ABA,1,24,102,1,90,3,1,477.41,0.41, ,,,,
104,25, F, adult, DCD,1,20,104,1,91,3,1,521.02,0.43, ,,,,
104,25, F, adult, ABA,1,24,102,1,92,3,1,424.34,71.62, ,,,,
104,25, F, adult, DCD,1,20,104,1,93,3,1,526.48,9.67, ,,,,
104,25, F, adult, BBB,0,25,102,1,94,3,1,391.08,144.71, ,,,,
104,25, F, adult, CDC,1,22,98,1,95,3,1,534.09,191.06, ,,,,
104,25, F, adult, ABA,1,24,102,1,96,3,1,389.98,184.81, ,,,,
104,25, F, adult, CDC,1,22,98,1,97,3,1,521.15,172.98, ,,,,
106,19, F, lat, DCD,1,20,104,1,1,1,1,937.83,739.21, ,,,,
106,19, F, lat, AAA,0,23,100,1,2,1,1,453.6,508.41, ,,,,
106,19, F, lat, DCD,1,20,104,1,3,1,1,760.35,194.76, ,,,,
106,19, F, lat, BAB,1,26,100,1,4,1,1,533.18,215.29, ,,,,
106,19, F, lat, DCD,1,20,104,1,5,1,1,477.72,211.56, ,,,,
106,19, F, lat, ABA,1,24,102,1,6,1,1,492,160.48, ,,,,
106,19, F, lat, CCC,0,21,104,1,7,1,1,497.86,160.07, ,,,,
106,19, F, lat, BAB,1,26,100,1,8,1,1,417.07,169.11, ,,,,
106,19, F, lat, DDD,0,19,98,1,9,1,1,543.32,166.16, ,,,,
106,19, F, lat, BBB,0,25,102,1,10,1,1,463.5,77.34, ,,,,
106,19, F, lat, CCC,0,21,104,1,11,1,1,481.4,56.86, ,,,,
106,19, F, lat, AAA,0,23,100,1,12,1,1,573.05,87.93, ,,,,
106,19, F, lat, DDD,0,19,98,1,13,1,1,490.12,88.85, ,,,,
106,19, F, lat, ABA,1,24,102,1,14,1,1,643.94,125.49, ,,,,
106,19, F, lat, CCC,0,21,104,1,15,1,1,424.07,200.22, ,,,,
106,19, F, lat, AAA,0,23,100,1,16,1,1,541.33,282.73, ,,,,
106,19, F, lat, CDC,1,22,98,1,17,1,1,2004.95,552, ,,,,
106,19, F, lat, AAA,0,23,100,1,18,1,1,663.98,0.39, ,,,,
106,19, F, lat, DDD,0,19,98,1,19,1,1,442.43,47.38, ,,,,
106,19, F, lat, BBB,0,25,102,1,20,1,1,549.19,199.73, ,,,,
106,19, F, lat, CCC,0,21,104,1,21,1,1,458.06,142.56, ,,,,
106,19, F, lat, BAB,1,26,100,1,22,1,1,696.56,253.81, ,,,,
106,19, F, lat, DCD,1,20,104,1,23,1,1,618.3,83.48, ,,,,
106,19, F, lat, AAA,0,23,100,1,24,1,1,505.11,180.99, ,,,,
106,19, F, lat, DDD,0,19,98,1,25,1,1,446.03,93.63, ,,,,
106,19, F, lat, AAA,0,23,100,1,26,1,1,400,49.1, ,,,,
106,19, F, lat, DDD,0,19,98,1,27,1,1,456.13,38.71, ,,,,
106,19, F, lat, AAA,0,23,100,1,28,1,1,411.27,20.68, ,,,,
106,19, F, lat, CDC,1,22,104,1,29,1,0,524.19,655.56, ,,,,
106,19, F, lat, BAB,1,26,100,1,30,1,1,1724.29,905.5, ,,,,
106,19, F, lat, DDD,0,19,98,1,31,1,1,492.81,338.66, ,,,,
106,19, F, lat, BBB,0,25,102,1,32,1,1,1172.51,607.95, ,,,,
106,19, F, lat, DDD,0,19,98,1,33,1,1,574.96,96.84, ,,,,
106,19, F, lat, BBB,0,25,102,1,34,1,1,563.4,280.09, ,,,,
106,19, F, lat, CDC,1,22,98,1,35,1,1,579.89,69.48, ,,,,
106,19, F, lat, BBB,0,25,102,1,36,1,1,478.16,0.43, ,,,,
106,19, F, lat, DCD,1,20,104,1,37,1,1,543.72,3.9, ,,,,
106,19, F, lat, AAA,0,23,100,1,38,1,1,650.35,562.66, ,,,,
106,19, F, lat, CCC,0,21,104,1,39,1,1,618.11,259.11, ,,,,
106,19, F, lat, AAA,0,23,100,1,40,1,1,529.26,341.75, ,,,,
106,19, F, lat, DDD,0,19,98,1,41,1,1,773.93,617.25, ,,,,
106,19, F, lat, BAB,1,26,100,1,42,1,1,505.35,245.03, ,,,,
106,19, F, lat, DDD,0,19,98,1,43,1,1,435.11,0.4, ,,,,
106,19, F, lat, BBB,0,25,102,1,44,1,1,472.43,0.4, ,,,,
106,19, F, lat, CDC,1,22,98,1,45,1,1,614.49,0.41, ,,,,
106,19, F, lat, ABA,1,24,102,1,46,1,1,537.05,0.42, ,,,,
106,19, F, lat, CDC,1,22,98,1,47,1,1,522.85,48.67, ,,,,
106,19, F, lat, BAB,1,26,100,1,48,1,1,581.77,454.3, ,,,,
106,19, F, lat, CCC,0,21,104,1,49,1,1,579.8,198.15, ,,,,
106,19, F, lat, ABA,1,24,102,1,50,1,1,510.58,67.15, ,,,,
106,19, F, lat, CCC,0,21,104,1,51,1,1,554.05,0.41, ,,,,
106,19, F, lat, BAB,1,26,100,1,52,1,1,532.17,0.4, ,,,,
106,19, F, lat, CCC,0,21,104,1,53,1,1,495.14,0.42, ,,,,
106,19, F, lat, ABA,1,24,102,1,54,1,1,493.13,375.07, ,,,,
106,19, F, lat, DCD,1,20,104,1,55,1,1,464.18,327.75, ,,,,
106,19, F, lat, ABA,1,24,102,1,56,1,1,762.17,108.58, ,,,,
106,19, F, lat, CCC,0,21,104,1,57,1,1,465.2,238.82, ,,,,
106,19, F, lat, BAB,1,26,100,1,58,1,1,492.34,74, ,,,,
106,19, F, lat, DCD,1,20,104,1,59,1,1,558.27,0.4, ,,,,
106,19, F, lat, BBB,0,25,102,1,60,1,1,439.68,1.41, ,,,,
106,19, F, lat, CDC,1,22,98,1,61,1,1,464.25,86.93, ,,,,
106,19, F, lat, AAA,0,23,100,1,62,1,1,444.15,0.4, ,,,,
106,19, F, lat, CCC,0,21,104,1,63,1,1,475.03,56.3, ,,,,
106,19, F, lat, BBB,0,25,102,1,64,1,1,540.73,34.51, ,,,,
106,19, F, lat, CDC,1,22,98,1,65,1,1,502.44,117.14, ,,,,
106,19, F, lat, BAB,1,26,100,1,66,1,1,488.11,5.77, ,,,,
106,19, F, lat, DDD,0,19,98,1,67,1,1,413.54,0.39, ,,,,
106,19, F, lat, ABA,1,24,102,1,68,1,1,415.33,0.4, ,,,,
106,19, F, lat, DDD,0,19,98,1,69,1,1,451.31,0.4, ,,,,
106,19, F, lat, BAB,1,26,100,1,70,1,1,585.45,0.41, ,,,,
106,19, F, lat, CDC,1,22,98,1,71,1,1,588.03,46.08, ,,,,
106,19, F, lat, ABA,1,24,102,1,72,1,1,513.78,327.23, ,,,,
106,19, F, lat, CDC,1,22,98,1,73,1,1,602.43,386.94, ,,,,
106,19, F, lat, ABA,1,24,102,1,74,1,1,555.75,0.39, ,,,,
106,19, F, lat, CDC,1,22,98,1,75,1,1,439.48,357.98, ,,,,
106,19, F, lat, AAA,0,23,100,1,76,1,1,623.65,78.83, ,,,,
106,19, F, lat, DCD,1,20,104,1,77,1,1,507.01,32.08, ,,,,
106,19, F, lat, ABA,1,24,102,1,78,1,1,442.06,590.06, ,,,,
106,19, F, lat, DDD,0,19,98,1,79,1,1,564.28,328.61, ,,,,
106,19, F, lat, BBB,0,25,102,1,80,1,1,531.64,0.4, ,,,,
106,19, F, lat, CCC,0,21,104,1,81,1,1,470.78,339.9, ,,,,
106,19, F, lat, BAB,1,26,100,1,82,1,1,681.73,539.79, ,,,,
106,19, F, lat, CDC,1,22,98,1,83,1,1,561,729.44, ,,,,
106,19, F, lat, BBB,0,25,102,1,84,1,1,587.95,340.54, ,,,,
106,19, F, lat, CDC,1,22,98,1,85,1,1,645.93,0.41, ,,,,
106,19, F, lat, BBB,0,25,102,1,86,1,1,500.01,267.77, ,,,,
106,19, F, lat, DCD,1,20,104,1,87,1,1,686.37,309.08, ,,,,
106,19, F, lat, ABA,1,24,102,1,88,1,1,830.8,369.37, ,,,,
106,19, F, lat, DCD,1,20,104,1,89,1,1,713.82,359.06, ,,,,
106,19, F, lat, ABA,1,24,102,1,90,1,1,784.84,393.62, ,,,,
106,19, F, lat, DCD,1,20,104,1,91,1,1,562.48,461.28, ,,,,
106,19, F, lat, BBB,0,25,102,1,92,1,1,393.67,267.8, ,,,,
106,19, F, lat, DCD,1,20,104,1,93,1,1,423.73,128.7, ,,,,
106,19, F, lat, AAA,0,23,100,1,94,1,1,643.2,18.81, ,,,,
106,19, F, lat, CCC,0,21,104,1,95,1,1,484.59,32.2, ,,,,
106,19, F, lat, BAB,1,26,100,1,96,1,1,627.44,54.63, ,,,,
106,19, F, lat, DCD,1,20,104,1,97,1,1,594.76,285.2, ,,,,
106,19, F, lat, CDC,1,22,98,1,1,2,1,489.18,2328.36, ,,,,
106,19, F, lat, ABA,1,24,102,1,2,2,1,652.21,507.35, ,,,,
106,19, F, lat, CDC,1,22,98,1,3,2,1,509.94,0.41, ,,,,
106,19, F, lat, ABA,1,24,102,1,4,2,1,484.57,471.69, ,,,,
106,19, F, lat, CCC,0,21,104,1,5,2,1,444.17,156.16, ,,,,
106,19, F, lat, BBB,0,25,102,1,6,2,1,474.24,0.41, ,,,,
106,19, F, lat, DDD,0,19,98,1,7,2,1,516.55,47.54, ,,,,
106,19, F, lat, BBB,0,25,102,1,8,2,1,453.18,0.41, ,,,,
106,19, F, lat, DDD,0,19,98,1,9,2,1,442.76,0.4, ,,,,
106,19, F, lat, BAB,1,26,102,1,10,2,0,372.97,956.51, ,,,,
106,19, F, lat, CCC,0,21,104,1,11,2,1,552.11,264.96, ,,,,
106,19, F, lat, BAB,1,26,100,1,12,2,1,413.37,982.7, ,,,,
106,19, F, lat, DDD,0,19,98,1,13,2,1,581.64,0.4, ,,,,
106,19, F, lat, BBB,0,25,102,1,14,2,1,471.48,0.4, ,,,,
106,19, F, lat, DCD,1,20,104,1,15,2,1,477.09,76.81, ,,,,
106,19, F, lat, AAA,0,23,100,1,16,2,1,520.97,6.65, ,,,,
106,19, F, lat, CCC,0,21,104,1,17,2,1,489.1,0.41, ,,,,
106,19, F, lat, ABA,1,24,102,1,18,2,1,586.06,0.4, ,,,,
106,19, F, lat, DDD,0,19,98,1,19,2,1,586.65,299.67, ,,,,
106,19, F, lat, BAB,1,26,100,1,20,2,1,584,0.42, ,,,,
106,19, F, lat, CDC,1,22,98,1,21,2,1,450.24,39.37, ,,,,
106,19, F, lat, BAB,1,26,100,1,22,2,1,537.73,34.64, ,,,,
106,19, F, lat, CDC,1,22,98,1,23,2,1,515.34,19.39, ,,,,
106,19, F, lat, ABA,1,24,102,1,24,2,1,514.61,0.4, ,,,,
106,19, F, lat, DCD,1,20,104,1,25,2,1,534.31,353.93, ,,,,
106,19, F, lat, BBB,0,25,102,1,26,2,1,460.37,426.31, ,,,,
106,19, F, lat, DDD,0,19,98,1,27,2,1,575.68,124.21, ,,,,
106,19, F, lat, ABA,1,24,102,1,28,2,1,598.81,263.17, ,,,,
106,19, F, lat, CDC,1,22,98,1,29,2,1,839.47,675.5, ,,,,
106,19, F, lat, ABA,1,24,102,1,30,2,1,752.71,380.71, ,,,,
106,19, F, lat, CCC,0,21,104,1,31,2,1,500.22,0.4, ,,,,
106,19, F, lat, BAB,1,26,100,1,32,2,1,470.76,126.58, ,,,,
106,19, F, lat, DDD,0,19,98,1,33,2,1,417.52,0.4, ,,,,
106,19, F, lat, AAA,0,23,100,1,34,2,1,575.35,0.4, ,,,,
106,19, F, lat, DDD,0,19,98,1,35,2,1,499.56,0.4, ,,,,
106,19, F, lat, BAB,1,26,100,1,36,2,1,511.5,267.35, ,,,,
106,19, F, lat, DCD,1,20,104,1,37,2,1,527.44,0.42, ,,,,
106,19, F, lat, AAA,0,23,100,1,38,2,1,579.96,0.4, ,,,,
106,19, F, lat, DDD,0,19,98,1,39,2,1,558.75,192.41, ,,,,
106,19, F, lat, BAB,1,26,100,1,40,2,1,560.28,0.41, ,,,,
106,19, F, lat, DDD,0,19,98,1,41,2,1,898.1,0.41, ,,,,
106,19, F, lat, BBB,0,25,102,1,42,2,1,488.35,0.39, ,,,,
106,19, F, lat, CDC,1,22,98,1,43,2,1,648.29,0.4, ,,,,
106,19, F, lat, BAB,1,26,100,1,44,2,1,857.52,1.66, ,,,,
106,19, F, lat, DCD,1,20,104,1,45,2,1,633.83,49.65, ,,,,
106,19, F, lat, ABA,1,24,102,1,46,2,1,445.59,61.57, ,,,,
106,19, F, lat, DCD,1,20,104,1,47,2,1,950.08,366.05, ,,,,
106,19, F, lat, AAA,0,23,100,1,48,2,1,711.38,67.65, ,,,,
106,19, F, lat, CDC,1,22,98,1,49,2,1,487.15,0.4, ,,,,
106,19, F, lat, BAB,1,26,100,1,50,2,1,498.31,0.39, ,,,,
106,19, F, lat, DCD,1,20,104,1,51,2,1,553.89,436.77, ,,,,
106,19, F, lat, ABA,1,24,102,1,52,2,1,540.14,95.13, ,,,,
106,19, F, lat, DDD,0,19,98,1,53,2,1,523.98,0.42, ,,,,
106,19, F, lat, AAA,0,23,100,1,54,2,1,478.63,1068.55, ,,,,
106,19, F, lat, CCC,0,21,104,1,55,2,1,505.63,0.4, ,,,,
106,19, F, lat, ABA,1,24,102,1,56,2,1,598.15,342.78, ,,,,
106,19, F, lat, CCC,0,21,104,1,57,2,1,505.66,94.4, ,,,,
106,19, F, lat, BAB,1,26,100,1,58,2,1,483.62,48.07, ,,,,
106,19, F, lat, CCC,0,21,104,1,59,2,1,485.48,370.42, ,,,,
106,19, F, lat, BBB,0,25,102,1,60,2,1,601.81,284.15, ,,,,
106,19, F, lat, CCC,0,21,104,1,61,2,1,583.4,43.36, ,,,,
106,19, F, lat, AAA,0,23,100,1,62,2,1,544.69,75.53, ,,,,
106,19, F, lat, DCD,1,20,104,1,63,2,1,562.49,211.99, ,,,,
106,19, F, lat, AAA,0,23,100,1,64,2,1,665.27,193.63, ,,,,
106,19, F, lat, DCD,1,20,104,1,65,2,1,655.51,320.56, ,,,,
106,19, F, lat, BBB,0,25,102,1,66,2,1,619.02,322.96, ,,,,
106,19, F, lat, DCD,1,20,104,1,67,2,1,565.17,16.13, ,,,,
106,19, F, lat, AAA,0,23,100,1,68,2,1,630.32,64.24, ,,,,
106,19, F, lat, DDD,0,19,98,1,69,2,1,461.43,0.4, ,,,,
106,19, F, lat, BBB,0,25,102,1,70,2,1,483.23,72.63, ,,,,
106,19, F, lat, DCD,1,20,104,1,71,2,1,524.36,177.31, ,,,,
106,19, F, lat, BAB,1,26,100,1,72,2,1,482.48,103.2, ,,,,
106,19, F, lat, CCC,0,21,104,1,73,2,1,485.46,0.42, ,,,,
106,19, F, lat, AAA,0,23,100,1,74,2,1,521.43,0.42, ,,,,
106,19, F, lat, CDC,1,22,98,1,75,2,1,618.93,355.54, ,,,,
106,19, F, lat, BBB,0,25,102,1,76,2,1,517.21,329.79, ,,,,
106,19, F, lat, CDC,1,22,98,1,77,2,1,841.84,0.39, ,,,,
106,19, F, lat, AAA,0,23,100,1,78,2,1,954.97,0.4, ,,,,
106,19, F, lat, DCD,1,20,104,1,79,2,1,608.36,0.41, ,,,,
106,19, F, lat, BBB,0,25,102,1,80,2,1,492.95,0.4, ,,,,
106,19, F, lat, CCC,0,21,104,1,81,2,1,469.63,96.43, ,,,,
106,19, F, lat, ABA,1,24,102,1,82,2,1,524.89,464.16, ,,,,
106,19, F, lat, CDC,1,22,98,1,83,2,1,644.25,492.57, ,,,,
106,19, F, lat, ABA,1,24,102,1,84,2,1,672.22,215.77, ,,,,
106,19, F, lat, CCC,0,21,104,1,85,2,1,492.1,19.43, ,,,,
106,19, F, lat, AAA,0,23,100,1,86,2,1,675.96,128.36, ,,,,
106,19, F, lat, CDC,1,22,98,1,87,2,1,594.39,301.32, ,,,,
106,19, F, lat, BBB,0,25,102,1,88,2,1,528.14,0.42, ,,,,
106,19, F, lat, CCC,0,21,104,1,89,2,1,420.21,132.1, ,,,,
106,19, F, lat, BBB,0,25,102,1,90,2,1,509.25,0.4, ,,,,
106,19, F, lat, CDC,1,22,98,1,91,2,1,610.3,123.45, ,,,,
106,19, F, lat, ABA,1,24,102,1,92,2,1,510.3,3.32, ,,,,
106,19, F, lat, DDD,0,19,98,1,93,2,1,591.01,188.17, ,,,,
106,19, F, lat, AAA,0,23,100,1,94,2,1,580.54,182.53, ,,,,
106,19, F, lat, CDC,1,22,98,1,95,2,1,642.26,0.4, ,,,,
106,19, F, lat, BAB,1,26,100,1,96,2,1,526.19,0.41, ,,,,
106,19, F, lat, DCD,1,20,104,1,97,2,1,845.57,320.97, ,,,,
106,19, F, lat, DCD,1,20,104,1,1,3,1,912.58,1119.02, ,,,,
106,19, F, lat, BAB,1,26,100,1,2,3,1,551.46,363.76, ,,,,
106,19, F, lat, DDD,0,19,98,1,3,3,1,404.81,0.41, ,,,,
106,19, F, lat, BBB,0,25,102,1,4,3,1,476.71,347.09, ,,,,
106,19, F, lat, CDC,1,22,98,1,5,3,1,472.15,114.81, ,,,,
106,19, F, lat, BBB,0,25,102,1,6,3,1,430.7,61.78, ,,,,
106,19, F, lat, DDD,0,19,98,1,7,3,1,420.46,11.7, ,,,,
106,19, F, lat, ABA,1,24,102,1,8,3,1,570.17,244.38, ,,,,
106,19, F, lat, CCC,0,21,104,1,9,3,1,561.43,278.14, ,,,,
106,19, F, lat, BBB,0,25,102,1,10,3,1,707.34,1872.06, ,,,,
106,19, F, lat, DDD,0,19,98,1,11,3,1,1153.41,352.13, ,,,,
106,19, F, lat, BAB,1,26,100,1,12,3,1,681.09,719.03, ,,,,
106,19, F, lat, CDC,1,22,98,1,13,3,1,833.88,441.38, ,,,,
106,19, F, lat, BAB,1,26,100,1,14,3,1,551.84,0.43, ,,,,
106,19, F, lat, CCC,0,21,104,1,15,3,1,603.82,0.4, ,,,,
106,19, F, lat, AAA,0,23,100,1,16,3,1,507.5,0.4, ,,,,
106,19, F, lat, CCC,0,21,104,1,17,3,1,522.1,0.41, ,,,,
106,19, F, lat, AAA,0,23,100,1,18,3,1,445.1,449.98, ,,,,
106,19, F, lat, DCD,1,20,104,1,19,3,1,501.55,276.79, ,,,,
106,19, F, lat, AAA,0,23,100,1,20,3,1,704.7,22.23, ,,,,
106,19, F, lat, DCD,1,20,104,1,21,3,1,652.55,0.4, ,,,,
106,19, F, lat, BAB,1,26,100,1,22,3,1,1178.76,5.65, ,,,,
106,19, F, lat, DCD,1,20,104,1,23,3,1,485.45,298.38, ,,,,
106,19, F, lat, AAA,0,23,100,1,24,3,1,1063.64,436.96, ,,,,
106,19, F, lat, CDC,1,22,98,1,25,3,1,594.46,60.68, ,,,,
106,19, F, lat, BAB,1,26,100,1,26,3,1,587.24,331.74, ,,,,
106,19, F, lat, CCC,0,21,104,1,27,3,1,685.84,515.44, ,,,,
106,19, F, lat, BBB,0,25,102,1,28,3,1,671.15,388.56, ,,,,
106,19, F, lat, CDC,1,22,98,1,29,3,1,1054,323.67, ,,,,
106,19, F, lat, AAA,0,23,100,1,30,3,1,541.51,354.66, ,,,,
106,19, F, lat, CDC,1,22,98,1,31,3,1,493.74,314.17, ,,,,
106,19, F, lat, BBB,0,25,102,1,32,3,1,483.42,89.55, ,,,,
106,19, F, lat, CDC,1,22,98,1,33,3,1,702.19,0.41, ,,,,
106,19, F, lat, ABA,1,24,102,1,34,3,1,706.92,863, ,,,,
106,19, F, lat, DDD,0,19,98,1,35,3,1,510.59,248.72, ,,,,
106,19, F, lat, BBB,0,25,102,1,36,3,1,485.36,0.39, ,,,,
106,19, F, lat, CCC,0,21,104,1,37,3,1,500.92,0.4, ,,,,
106,19, F, lat, AAA,0,23,100,1,38,3,1,582.89,0.4, ,,,,
106,19, F, lat, DDD,0,19,98,1,39,3,1,403.94,450.02, ,,,,
106,19, F, lat, ABA,1,24,102,1,40,3,1,982.38,329.17, ,,,,
106,19, F, lat, DDD,0,19,98,1,41,3,1,491,273.29, ,,,,
106,19, F, lat, ABA,1,24,102,1,42,3,1,641.5,141.27, ,,,,
106,19, F, lat, CCC,0,21,104,1,43,3,1,622.17,304.26, ,,,,
106,19, F, lat, ABA,1,24,102,1,44,3,1,569.87,317.46, ,,,,
106,19, F, lat, DCD,1,20,104,1,45,3,1,563.58,547.14, ,,,,
106,19, F, lat, BAB,1,26,100,1,46,3,1,780.4,302.9, ,,,,
106,19, F, lat, CCC,0,21,104,1,47,3,1,601.46,75.32, ,,,,
106,19, F, lat, BBB,0,25,102,1,48,3,1,606.72,241.44, ,,,,
106,19, F, lat, CDC,1,22,98,1,49,3,1,585.12,201.22, ,,,,
106,19, F, lat, BAB,1,26,100,1,50,3,1,672.9,278.42, ,,,,
106,19, F, lat, CCC,0,21,104,1,51,3,1,387.46,341.5, ,,,,
106,19, F, lat, AAA,0,23,100,1,52,3,1,486.6,0.4, ,,,,
106,19, F, lat, CDC,1,22,98,1,53,3,1,562.57,1126.7, ,,,,
106,19, F, lat, BBB,0,25,102,1,54,3,1,497.74,255.27, ,,,,
106,19, F, lat, CCC,0,21,104,1,55,3,1,422.78,0.41, ,,,,
106,19, F, lat, BAB,1,26,100,1,56,3,1,527.39,32.82, ,,,,
106,19, F, lat, DDD,0,19,98,1,57,3,1,511.72,0.42, ,,,,
106,19, F, lat, BAB,1,26,100,1,58,3,1,442.42,218.71, ,,,,
106,19, F, lat, DDD,0,19,98,1,59,3,1,761.56,444.45, ,,,,
106,19, F, lat, ABA,1,24,102,1,60,3,1,673.63,65.42, ,,,,
106,19, F, lat, DCD,1,20,104,1,61,3,1,1758.76,145.68, ,,,,
106,19, F, lat, AAA,0,23,100,1,62,3,1,579.48,757.05, ,,,,
106,19, F, lat, CDC,1,22,98,1,63,3,1,591.02,472.17, ,,,,
106,19, F, lat, ABA,1,24,102,1,64,3,1,554.56,663.97, ,,,,
106,19, F, lat, DDD,0,19,98,1,65,3,1,685.71,898.36, ,,,,
106,19, F, lat, AAA,0,23,100,1,66,3,1,460.35,308.81, ,,,,
106,19, F, lat, DDD,0,19,98,1,67,3,1,642.6,16.04, ,,,,
106,19, F, lat, BBB,0,25,102,1,68,3,1,597.57,0.4, ,,,,
106,19, F, lat, DCD,1,20,104,1,69,3,1,497.36,277.23, ,,,,
106,19, F, lat, AAA,0,23,100,1,70,3,1,561.82,157.6, ,,,,
106,19, F, lat, CCC,0,21,104,1,71,3,1,548.66,0.4, ,,,,
106,19, F, lat, BBB,0,25,102,1,72,3,1,367.38,154.98, ,,,,
106,19, F, lat, DCD,1,20,104,1,73,3,1,564.54,0.4, ,,,,
106,19, F, lat, BAB,1,26,100,1,74,3,1,442.7,254.44, ,,,,
106,19, F, lat, CDC,1,22,98,1,75,3,1,675.24,211.3, ,,,,
106,19, F, lat, BAB,1,26,100,1,76,3,1,616.47,313.8, ,,,,
106,19, F, lat, DCD,1,20,104,1,77,3,1,571.7,0.41, ,,,,
106,19, F, lat, ABA,1,24,102,1,78,3,1,567.19,72.57, ,,,,
106,19, F, lat, DCD,1,20,104,1,79,3,1,745.35,264.85, ,,,,
106,19, F, lat, BBB,0,25,102,1,80,3,1,650.39,333.22, ,,,,
106,19, F, lat, CDC,1,22,98,1,81,3,1,468.36,0.41, ,,,,
106,19, F, lat, ABA,1,24,102,1,82,3,1,440.68,228.06, ,,,,
106,19, F, lat, CCC,0,21,104,1,83,3,1,543.88,158.89, ,,,,
106,19, F, lat, AAA,0,23,100,1,84,3,1,407.43,0.4, ,,,,
106,19, F, lat, DCD,1,20,104,1,85,3,1,573.22,835.2, ,,,,
106,19, F, lat, BAB,1,26,100,1,86,3,1,713.62,317.53, ,,,,
106,19, F, lat, DDD,0,19,98,1,87,3,1,510.72,0.4, ,,,,
106,19, F, lat, BBB,0,25,102,1,88,3,1,707.45,178.39, ,,,,
106,19, F, lat, DCD,1,20,104,1,89,3,1,761.19,197.37, ,,,,
106,19, F, lat, ABA,1,24,102,1,90,3,1,596.18,0.41, ,,,,
106,19, F, lat, DCD,1,20,104,1,91,3,1,519.21,338.01, ,,,,
106,19, F, lat, ABA,1,24,102,1,92,3,1,477.25,562.44, ,,,,
106,19, F, lat, CCC,0,21,104,1,93,3,1,514.92,319.96, ,,,,
106,19, F, lat, AAA,0,23,100,1,94,3,1,543.41,526.49, ,,,,
106,19, F, lat, DDD,0,19,98,1,95,3,1,696.32,446.29, ,,,,
106,19, F, lat, ABA,1,24,102,1,96,3,1,717.61,128.14, ,,,,
106,19, F, lat, CDC,1,22,98,1,97,3,1,554.27,0.4, ,,,,
109,11, F, ea, DCD,1,20,104,1,1,1,1,1185.13,431.52, ,,,,
109,11, F, ea, BBB,0,25,102,1,2,1,1,723.7,697.32, ,,,,
109,11, F, ea, DCD,1,20,104,1,3,1,1,879.57,354.97, ,,,,
109,11, F, ea, AAA,0,23,100,1,4,1,1,783.86,262.45, ,,,,
109,11, F, ea, DDD,0,19,98,1,5,1,1,693.68,279.42, ,,,,
109,11, F, ea, ABA,1,24,102,1,6,1,1,880.47,464.09, ,,,,
109,11, F, ea, DCD,1,20,104,1,7,1,1,853.14,419.58, ,,,,
109,11, F, ea, AAA,0,23,100,1,8,1,1,615.21,250.6, ,,,,
109,11, F, ea, CCC,0,21,104,1,9,1,1,713.06,299.54, ,,,,
109,11, F, ea, AAA,0,23,100,1,10,1,1,778.91,319.01, ,,,,
109,11, F, ea, CCC,0,21,104,1,11,1,1,638.98,344.3, ,,,,
109,11, F, ea, AAA,0,23,100,1,12,1,1,849.16,689.26, ,,,,
109,11, F, ea, DCD,1,20,104,1,13,1,1,831.97,660.56, ,,,,
109,11, F, ea, ABA,1,24,102,1,14,1,1,911.04,310.8, ,,,,
109,11, F, ea, DDD,0,19,98,1,15,1,1,868.25,368.01, ,,,,
109,11, F, ea, BBB,0,25,102,1,16,1,1,931,747.68, ,,,,
109,11, F, ea, CDC,1,22,98,1,17,1,1,771.31,320.87, ,,,,
109,11, F, ea, AAA,0,23,100,1,18,1,1,814.12,330.78, ,,,,
109,11, F, ea, CDC,1,22,98,1,19,1,1,792.32,646.55, ,,,,
109,11, F, ea, ABA,1,24,102,1,20,1,1,1056.49,650.61, ,,,,
109,11, F, ea, DDD,0,19,98,1,21,1,1,701.81,293.24, ,,,,
109,11, F, ea, BAB,1,26,100,1,22,1,1,826.86,520.86, ,,,,
109,11, F, ea, DCD,1,20,104,1,23,1,1,857.45,537.9, ,,,,
109,11, F, ea, ABA,1,24,102,1,24,1,1,832.42,403.92, ,,,,
109,11, F, ea, DDD,0,19,98,1,25,1,1,734.11,383.01, ,,,,
109,11, F, ea, ABA,1,24,102,1,26,1,1,714.34,329.9, ,,,,
109,11, F, ea, CCC,0,21,104,1,27,1,1,710.87,776.12, ,,,,
109,11, F, ea, BAB,1,26,100,1,28,1,1,821.25,777.96, ,,,,
109,11, F, ea, DDD,0,19,98,1,29,1,1,831.12,938.43, ,,,,
109,11, F, ea, BBB,0,25,102,1,30,1,1,746.01,391.73, ,,,,
109,11, F, ea, CDC,1,22,98,1,31,1,1,1571.61,275.67, ,,,,
109,11, F, ea, BBB,0,25,102,1,32,1,1,731.14,218.52, ,,,,
109,11, F, ea, CDC,1,22,98,1,33,1,1,820.18,633.82, ,,,,
109,11, F, ea, BAB,1,26,100,1,34,1,1,1783.94,339.32, ,,,,
109,11, F, ea, DDD,0,19,98,1,35,1,1,722.67,313.94, ,,,,
109,11, F, ea, AAA,0,23,100,1,36,1,1,541.82,230.11, ,,,,
109,11, F, ea, DDD,0,19,98,1,37,1,1,677.87,322.17, ,,,,
109,11, F, ea, ABA,1,24,102,1,38,1,1,887.66,441.54, ,,,,
109,11, F, ea, CDC,1,22,98,1,39,1,1,735.5,410.49, ,,,,
109,11, F, ea, BAB,1,26,100,1,40,1,1,739.21,260.14, ,,,,
109,11, F, ea, CDC,1,22,98,1,41,1,1,742.53,539.84, ,,,,
109,11, F, ea, BAB,1,26,100,1,42,1,1,720.12,410.97, ,,,,
109,11, F, ea, CCC,0,21,104,1,43,1,1,639.23,520.67, ,,,,
109,11, F, ea, BBB,0,25,102,1,44,1,1,758.04,333.96, ,,,,
109,11, F, ea, CCC,0,21,104,1,45,1,1,846.44,390.64, ,,,,
109,11, F, ea, AAA,0,23,100,1,46,1,1,743.86,329.59, ,,,,
109,11, F, ea, DDD,0,19,98,1,47,1,1,575.21,355.94, ,,,,
109,11, F, ea, BAB,1,26,100,1,48,1,1,857.12,556.61, ,,,,
109,11, F, ea, CDC,1,22,98,1,49,1,1,816.76,341.7, ,,,,
109,11, F, ea, ABA,1,24,102,1,50,1,1,699.79,244.01, ,,,,
109,11, F, ea, CCC,0,21,104,1,51,1,1,742.43,244.99, ,,,,
109,11, F, ea, BBB,0,25,102,1,52,1,1,739.05,444.44, ,,,,
109,11, F, ea, CDC,1,22,98,1,53,1,1,717,286.25, ,,,,
109,11, F, ea, ABA,1,24,102,1,54,1,1,651.53,271.28, ,,,,
109,11, F, ea, CDC,1,22,98,1,55,1,1,709.26,255.87, ,,,,
109,11, F, ea, ABA,1,24,102,1,56,1,1,689.27,298.92, ,,,,
109,11, F, ea, DCD,1,20,104,1,57,1,1,727.92,384.76, ,,,,
109,11, F, ea, AAA,0,23,100,1,58,1,1,756.92,276.24, ,,,,
109,11, F, ea, CCC,0,21,104,1,59,1,1,619.59,271.18, ,,,,
109,11, F, ea, AAA,0,23,100,1,60,1,1,711.32,239.7, ,,,,
109,11, F, ea, CDC,1,22,98,1,61,1,1,776.01,231.21, ,,,,
109,11, F, ea, ABA,1,24,102,1,62,1,1,1005.31,295.23, ,,,,
109,11, F, ea, DDD,0,19,98,1,63,1,1,726.24,372.89, ,,,,
109,11, F, ea, ABA,1,24,102,1,64,1,1,673.48,259.1, ,,,,
109,11, F, ea, CDC,1,22,98,1,65,1,1,772.71,354.68, ,,,,
109,11, F, ea, BBB,0,25,102,1,66,1,1,773.11,268.99, ,,,,
109,11, F, ea, CCC,0,21,104,1,67,1,1,660.46,439.71, ,,,,
109,11, F, ea, BAB,1,26,100,1,68,1,1,833.91,733.82, ,,,,
109,11, F, ea, DCD,1,20,104,1,69,1,1,779.48,401.13, ,,,,
109,11, F, ea, BAB,1,26,100,1,70,1,1,764.21,691.07, ,,,,
109,11, F, ea, DCD,1,20,104,1,71,1,1,1054.55,958.59, ,,,,
109,11, F, ea, AAA,0,23,100,1,72,1,1,853.16,255.47, ,,,,
109,11, F, ea, DCD,1,20,104,1,73,1,1,889.15,434.81, ,,,,
109,11, F, ea, BBB,0,25,102,1,74,1,1,884.47,3309.75, ,,,,
109,11, F, ea, DCD,1,20,104,1,75,1,1,699.44,1772.5, ,,,,
109,11, F, ea, BBB,0,25,102,1,76,1,1,772.82,426.94, ,,,,
109,11, F, ea, DDD,0,19,98,1,77,1,1,796.21,304.81, ,,,,
109,11, F, ea, BAB,1,26,100,1,78,1,1,1113.11,688.66, ,,,,
109,11, F, ea, CCC,0,21,104,1,79,1,1,1033.22,269.59, ,,,,
109,11, F, ea, BBB,0,25,102,1,80,1,1,773.81,315.75, ,,,,
109,11, F, ea, CCC,0,21,104,1,81,1,1,584.67,631.96, ,,,,
109,11, F, ea, BBB,0,25,102,1,82,1,1,704.63,474.84, ,,,,
109,11, F, ea, DDD,0,19,98,1,83,1,1,746.82,297.26, ,,,,
109,11, F, ea, BAB,1,26,100,1,84,1,1,831.86,427.82, ,,,,
109,11, F, ea, DCD,1,20,104,1,85,1,1,902.53,343.75, ,,,,
109,11, F, ea, AAA,0,23,100,1,86,1,1,831.93,376.5, ,,,,
109,11, F, ea, CDC,1,22,98,1,87,1,1,931.03,787.85, ,,,,
109,11, F, ea, BBB,0,25,102,1,88,1,1,950.28,759.24, ,,,,
109,11, F, ea, DCD,1,20,104,1,89,1,1,979.77,778.5, ,,,,
109,11, F, ea, ABA,1,24,102,1,90,1,1,982.96,341.43, ,,,,
109,11, F, ea, DDD,0,19,98,1,91,1,1,818.73,1096.35, ,,,,
109,11, F, ea, BAB,1,26,100,1,92,1,1,872.25,1162.81, ,,,,
109,11, F, ea, CCC,0,21,104,1,93,1,1,833.38,388.81, ,,,,
109,11, F, ea, AAA,0,23,100,1,94,1,1,746.12,295.41, ,,,,
109,11, F, ea, CCC,0,21,104,1,95,1,1,640.19,297.37, ,,,,
109,11, F, ea, BAB,1,26,100,1,96,1,1,730.01,319.53, ,,,,
109,11, F, ea, DCD,1,20,104,1,97,1,1,1664.69,994.34, ,,,,
109,11, F, ea, DCD,1,20,104,1,1,2,1,977.55,615.6, ,,,,
109,11, F, ea, AAA,0,23,100,1,2,2,1,747,274.36, ,,,,
109,11, F, ea, CCC,0,21,104,1,3,2,1,744.92,417.45, ,,,,
109,11, F, ea, BAB,1,26,100,1,4,2,1,1092.03,494.65, ,,,,
109,11, F, ea, CCC,0,21,104,1,5,2,1,741.44,372.33, ,,,,
109,11, F, ea, ABA,1,24,102,1,6,2,1,1051.99,972.86, ,,,,
109,11, F, ea, DCD,1,20,104,1,7,2,1,769.15,568.11, ,,,,
109,11, F, ea, AAA,0,23,100,1,8,2,1,909.89,814.4, ,,,,
109,11, F, ea, CCC,0,21,104,1,9,2,1,738.05,681.96, ,,,,
109,11, F, ea, BAB,1,26,100,1,10,2,1,880.95,979.44, ,,,,
109,11, F, ea, DDD,0,19,98,1,11,2,1,977.17,280.32, ,,,,
109,11, F, ea, ABA,1,24,102,1,12,2,1,814.28,467.39, ,,,,
109,11, F, ea, CCC,0,21,104,1,13,2,1,1043.34,1024.04, ,,,,
109,11, F, ea, AAA,0,23,100,1,14,2,1,829.07,311.02, ,,,,
109,11, F, ea, DDD,0,19,98,1,15,2,1,892.77,295.17, ,,,,
109,11, F, ea, BBB,0,25,102,1,16,2,1,747.38,276.8, ,,,,
109,11, F, ea, DCD,1,20,104,1,17,2,1,805.26,369.69, ,,,,
109,11, F, ea, ABA,1,24,102,1,18,2,1,765.05,315.73, ,,,,
109,11, F, ea, DCD,1,20,104,1,19,2,1,858.28,533.88, ,,,,
109,11, F, ea, AAA,0,23,100,1,20,2,1,762.15,297.39, ,,,,
109,11, F, ea, CCC,0,21,104,1,21,2,1,793.97,341.5, ,,,,
109,11, F, ea, AAA,0,23,100,1,22,2,1,772.28,585.12, ,,,,
109,11, F, ea, CDC,1,22,98,1,23,2,1,845.86,313.43, ,,,,
109,11, F, ea, AAA,0,23,100,1,24,2,1,712.25,230.71, ,,,,
109,11, F, ea, CCC,0,21,104,1,25,2,1,670.33,291, ,,,,
109,11, F, ea, AAA,0,23,100,1,26,2,1,616.56,269.69, ,,,,
109,11, F, ea, CDC,1,22,98,1,27,2,1,1048.95,384.71, ,,,,
109,11, F, ea, BAB,1,26,100,1,28,2,1,698.74,277.13, ,,,,
109,11, F, ea, CCC,0,21,104,1,29,2,1,812.74,865.51, ,,,,
109,11, F, ea, ABA,1,24,102,1,30,2,1,771.88,305.4, ,,,,
109,11, F, ea, DDD,0,19,98,1,31,2,1,705.12,400.07, ,,,,
109,11, F, ea, BBB,0,25,102,1,32,2,1,699.14,316.76, ,,,,
109,11, F, ea, CCC,0,21,104,1,33,2,1,721.22,306.08, ,,,,
109,11, F, ea, BAB,1,26,100,1,34,2,1,1112.1,354.85, ,,,,
109,11, F, ea, CDC,1,22,98,1,35,2,1,727.78,400, ,,,,
109,11, F, ea, BAB,1,26,100,1,36,2,1,748.14,849.54, ,,,,
109,11, F, ea, DCD,1,20,104,1,37,2,1,1040.29,727.26, ,,,,
109,11, F, ea, AAA,0,23,100,1,38,2,1,823.09,298.09, ,,,,
109,11, F, ea, DDD,0,19,98,1,39,2,1,800.92,501.96, ,,,,
109,11, F, ea, ABA,1,24,102,1,40,2,1,1085.2,1232.63, ,,,,
109,11, F, ea, CDC,1,22,98,1,41,2,1,861.8,350.03, ,,,,
109,11, F, ea, BBB,0,25,102,1,42,2,1,755.91,306.85, ,,,,
109,11, F, ea, CCC,0,21,104,1,43,2,1,777.63,319.84, ,,,,
109,11, F, ea, BBB,0,25,102,1,44,2,1,644.07,271.95, ,,,,
109,11, F, ea, DDD,0,19,98,1,45,2,1,710.47,785.37, ,,,,
109,11, F, ea, ABA,1,24,102,1,46,2,1,843.69,273.19, ,,,,
109,11, F, ea, DDD,0,19,98,1,47,2,1,585.52,382.27, ,,,,
109,11, F, ea, BAB,1,26,100,1,48,2,1,732.06,801.49, ,,,,
109,11, F, ea, CDC,1,22,98,1,49,2,1,1899.59,714.19, ,,,,
109,11, F, ea, ABA,1,24,102,1,50,2,1,809.7,766.51, ,,,,
109,11, F, ea, DCD,1,20,104,1,51,2,1,980.46,784.89, ,,,,
109,11, F, ea, AAA,0,23,100,1,52,2,1,886.08,440.59, ,,,,
109,11, F, ea, DCD,1,20,104,1,53,2,1,2977.27,717.61, ,,,,
109,11, F, ea, BBB,0,25,102,1,54,2,1,774.62,594.23, ,,,,
109,11, F, ea, DCD,1,20,104,1,55,2,1,717.4,637.9, ,,,,
109,11, F, ea, BBB,0,25,102,1,56,2,1,609.56,725.41, ,,,,
109,11, F, ea, CDC,1,22,98,1,57,2,1,820.44,831.57, ,,,,
109,11, F, ea, AAA,0,23,100,1,58,2,1,705.04,291.78, ,,,,
109,11, F, ea, DDD,0,19,98,1,59,2,1,619.69,270.7, ,,,,
109,11, F, ea, ABA,1,24,102,1,60,2,1,750.86,477.17, ,,,,
109,11, F, ea, CDC,1,22,98,1,61,2,1,891.48,247.03, ,,,,
109,11, F, ea, BAB,1,26,100,1,62,2,1,792.16,277.03, ,,,,
109,11, F, ea, DDD,0,19,98,1,63,2,1,740.01,332.62, ,,,,
109,11, F, ea, ABA,1,24,102,1,64,2,1,954.31,1034, ,,,,
109,11, F, ea, DCD,1,20,104,1,65,2,1,878.6,662.8, ,,,,
109,11, F, ea, ABA,1,24,102,1,66,2,1,813.67,339.56, ,,,,
109,11, F, ea, DCD,1,20,104,1,67,2,1,745.09,656.59, ,,,,
109,11, F, ea, ABA,1,24,102,1,68,2,1,713.38,338.83, ,,,,
109,11, F, ea, CDC,1,22,98,1,69,2,1,808.16,797.37, ,,,,
109,11, F, ea, BBB,0,25,102,1,70,2,1,775.74,464.02, ,,,,
109,11, F, ea, DCD,1,20,104,1,71,2,1,776.72,597.69, ,,,,
109,11, F, ea, BAB,1,26,100,1,72,2,1,817.83,469.82, ,,,,
109,11, F, ea, CDC,1,22,98,1,73,2,1,823.47,490.63, ,,,,
109,11, F, ea, BBB,0,25,102,1,74,2,1,773.03,656.77, ,,,,
109,11, F, ea, CCC,0,21,104,1,75,2,1,840,830.67, ,,,,
109,11, F, ea, ABA,1,24,102,1,76,2,1,760.85,552.9, ,,,,
109,11, F, ea, CDC,1,22,98,1,77,2,1,732.19,348.85, ,,,,
109,11, F, ea, BAB,1,26,100,1,78,2,1,742.72,337.12, ,,,,
109,11, F, ea, CCC,0,21,104,1,79,2,1,655.32,553.2, ,,,,
109,11, F, ea, BAB,1,26,100,1,80,2,1,685.27,319.85, ,,,,
109,11, F, ea, DCD,1,20,104,1,81,2,1,734.25,341.64, ,,,,
109,11, F, ea, BBB,0,25,102,1,82,2,1,1025.2,368.84, ,,,,
109,11, F, ea, DDD,0,19,98,1,83,2,1,747.53,266.91, ,,,,
109,11, F, ea, AAA,0,23,100,1,84,2,1,713.76,299.24, ,,,,
109,11, F, ea, DDD,0,19,98,1,85,2,1,689.98,395.22, ,,,,
109,11, F, ea, BAB,1,26,100,1,86,2,1,919.17,398.73, ,,,,
109,11, F, ea, CCC,0,21,104,1,87,2,1,1010.23,872.53, ,,,,
109,11, F, ea, BBB,0,25,102,1,88,2,1,729.99,369.48, ,,,,
109,11, F, ea, DDD,0,19,98,1,89,2,1,702.2,725.32, ,,,,
109,11, F, ea, BAB,1,26,100,1,90,2,1,900.74,1045.85, ,,,,
109,11, F, ea, CDC,1,22,98,1,91,2,1,855.91,1075.89, ,,,,
109,11, F, ea, BBB,0,25,102,1,92,2,1,693.87,565.87, ,,,,
109,11, F, ea, CDC,1,22,98,1,93,2,1,827.34,855.88, ,,,,
109,11, F, ea, AAA,0,23,100,1,94,2,1,778.18,1151.57, ,,,,
109,11, F, ea, DDD,0,19,98,1,95,2,1,903.16,663.72, ,,,,
109,11, F, ea, BBB,0,25,102,1,96,2,1,667.31,834.72, ,,,,
109,11, F, ea, DCD,1,20,104,1,97,2,1,883.86,1104.1, ,,,,
109,11, F, ea, CDC,1,22,98,1,1,3,1,795.88,320.86, ,,,,
109,11, F, ea, BBB,0,25,102,1,2,3,1,663.36,297.09, ,,,,
109,11, F, ea, CDC,1,22,98,1,3,3,1,742.07,367.43, ,,,,
109,11, F, ea, BBB,0,25,102,1,4,3,1,627.22,479.45, ,,,,
109,11, F, ea, CDC,1,22,98,1,5,3,1,711.73,465.01, ,,,,
109,11, F, ea, BBB,0,25,102,1,6,3,1,680.21,273.91, ,,,,
109,11, F, ea, CCC,0,21,104,1,7,3,1,769.05,335.95, ,,,,
109,11, F, ea, BAB,1,26,100,1,8,3,1,653.25,312.02, ,,,,
109,11, F, ea, DDD,0,19,98,1,9,3,1,734.21,437.97, ,,,,
109,11, F, ea, BBB,0,25,102,1,10,3,1,734.82,799.01, ,,,,
109,11, F, ea, DCD,1,20,104,1,11,3,1,790.57,793.51, ,,,,
109,11, F, ea, AAA,0,23,100,1,12,3,1,780.71,491, ,,,,
109,11, F, ea, DDD,0,19,98,1,13,3,1,768.51,960.37, ,,,,
109,11, F, ea, ABA,1,24,102,1,14,3,1,925.62,879.1, ,,,,
109,11, F, ea, CCC,0,21,104,1,15,3,1,844.5,1563.73, ,,,,
109,11, F, ea, BBB,0,25,102,1,16,3,1,884.34,853.77, ,,,,
109,11, F, ea, DCD,1,20,104,1,17,3,1,870.51,978.39, ,,,,
109,11, F, ea, ABA,1,24,102,1,18,3,1,1336.8,808.74, ,,,,
109,11, F, ea, DDD,0,19,98,1,19,3,1,796.97,745.25, ,,,,
109,11, F, ea, ABA,1,24,102,1,20,3,1,774.75,444.68, ,,,,
109,11, F, ea, CDC,1,22,98,1,21,3,1,1246.92,1321.99, ,,,,
109,11, F, ea, BAB,1,26,100,1,22,3,1,723.01,394.76, ,,,,
109,11, F, ea, DCD,1,20,104,1,23,3,1,1048.11,314, ,,,,
109,11, F, ea, BBB,0,25,102,1,24,3,1,873.05,666.75, ,,,,
109,11, F, ea, DDD,0,19,98,1,25,3,1,1163.93,882.55, ,,,,
109,11, F, ea, AAA,0,23,100,1,26,3,1,708.45,485.04, ,,,,
109,11, F, ea, DCD,1,20,104,1,27,3,1,787.8,586.5, ,,,,
109,11, F, ea, BBB,0,25,102,1,28,3,1,924.2,334.48, ,,,,
109,11, F, ea, CCC,0,21,104,1,29,3,1,730.64,316.17, ,,,,
109,11, F, ea, BAB,1,26,100,1,30,3,1,1602.45,776.76, ,,,,
109,11, F, ea, DDD,0,19,98,1,31,3,1,787.96,523, ,,,,
109,11, F, ea, BAB,1,26,100,1,32,3,1,776.96,263.98, ,,,,
109,11, F, ea, CDC,1,22,98,1,33,3,1,671.77,321.8, ,,,,
109,11, F, ea, AAA,0,23,100,1,34,3,1,752.79,358.67, ,,,,
109,11, F, ea, CCC,0,21,104,1,35,3,1,736.41,283.05, ,,,,
109,11, F, ea, AAA,0,23,100,1,36,3,1,702.39,515.13, ,,,,
109,11, F, ea, CDC,1,22,98,1,37,3,1,682.18,291.18, ,,,,
109,11, F, ea, ABA,1,24,102,1,38,3,1,778.02,953.72, ,,,,
109,11, F, ea, DCD,1,20,104,1,39,3,1,774.62,1078.17, ,,,,
109,11, F, ea, ABA,1,24,102,1,40,3,1,1175.58,1919.24, ,,,,
109,11, F, ea, CCC,0,21,104,1,41,3,1,806.98,318.73, ,,,,
109,11, F, ea, BAB,1,26,100,1,42,3,1,1283.95,3647.45, ,,,,
109,11, F, ea, DCD,1,20,104,1,43,3,1,855.09,476.21, ,,,,
109,11, F, ea, AAA,0,23,100,1,44,3,1,744.7,332, ,,,,
109,11, F, ea, DDD,0,19,98,1,45,3,1,807.51,502.49, ,,,,
109,11, F, ea, BBB,0,25,102,1,46,3,1,797.28,457.62, ,,,,
109,11, F, ea, DDD,0,19,98,1,47,3,1,673.43,316.77, ,,,,
109,11, F, ea, BAB,1,26,100,1,48,3,1,723.22,243.8, ,,,,
109,11, F, ea, DCD,1,20,104,1,49,3,1,803.57,272.4, ,,,,
109,11, F, ea, AAA,0,23,100,1,50,3,1,857.58,500.46, ,,,,
109,11, F, ea, CCC,0,21,104,1,51,3,1,801.32,328.13, ,,,,
109,11, F, ea, BBB,0,25,102,1,52,3,1,935.25,1429.92, ,,,,
109,11, F, ea, CDC,1,22,98,1,53,3,1,1505.09,1020.7, ,,,,
109,11, F, ea, ABA,1,24,102,1,54,3,1,1015.97,1093.56, ,,,,
109,11, F, ea, CCC,0,21,104,1,55,3,1,643.66,273.64, ,,,,
109,11, F, ea, ABA,1,24,102,1,56,3,1,741.39,241.23, ,,,,
109,11, F, ea, CDC,1,22,98,1,57,3,1,816.95,279.99, ,,,,
109,11, F, ea, BAB,1,26,100,1,58,3,1,846.74,1170.13, ,,,,
109,11, F, ea, DCD,1,20,104,1,59,3,1,1673.13,277.28, ,,,,
109,11, F, ea, AAA,0,23,100,1,60,3,1,619.26,320.53, ,,,,
109,11, F, ea, DCD,1,20,104,1,61,3,1,1050.37,305.45, ,,,,
109,11, F, ea, ABA,1,24,102,1,62,3,1,775.74,822.27, ,,,,
109,11, F, ea, CDC,1,22,98,1,63,3,1,1051.79,1229.5, ,,,,
109,11, F, ea, BAB,1,26,100,1,64,3,1,882.81,3347.94, ,,,,
109,11, F, ea, CCC,0,21,104,1,65,3,1,845.57,660.19, ,,,,
109,11, F, ea, BBB,0,25,102,1,66,3,1,722.29,356.66, ,,,,
109,11, F, ea, CCC,0,21,104,1,67,3,1,769.54,247.5, ,,,,
109,11, F, ea, AAA,0,23,100,1,68,3,1,824.6,300.5, ,,,,
109,11, F, ea, DDD,0,19,98,1,69,3,1,818.45,328.45, ,,,,
109,11, F, ea, AAA,0,23,100,1,70,3,1,716.51,389.23, ,,,,
109,11, F, ea, CDC,1,22,98,1,71,3,1,721.6,312.81, ,,,,
109,11, F, ea, BAB,1,26,100,1,72,3,1,710.16,311.68, ,,,,
109,11, F, ea, DDD,0,19,98,1,73,3,1,646.37,424.4, ,,,,
109,11, F, ea, BAB,1,26,100,1,74,3,1,829.71,703.29, ,,,,
109,11, F, ea, CCC,0,21,104,1,75,3,1,879.14,401.23, ,,,,
109,11, F, ea, ABA,1,24,104,1,76,3,0,131.25,1681.01, ,,,,
109,11, F, ea, DCD,1,20,104,1,77,3,1,1092.26,622.63, ,,,,
109,11, F, ea, ABA,1,24,102,1,78,3,1,857.77,636.62, ,,,,
109,11, F, ea, DDD,0,19,98,1,79,3,1,831.01,538.67, ,,,,
109,11, F, ea, BAB,1,26,100,1,80,3,1,842.41,525.07, ,,,,
109,11, F, ea, CDC,1,22,98,1,81,3,1,843.14,543.67, ,,,,
109,11, F, ea, AAA,0,23,100,1,82,3,1,755.64,403.18, ,,,,
109,11, F, ea, CDC,1,22,98,1,83,3,1,772.42,340.25, ,,,,
109,11, F, ea, ABA,1,24,102,1,84,3,1,802.87,326.84, ,,,,
109,11, F, ea, CCC,0,21,104,1,85,3,1,939.34,501.41, ,,,,
109,11, F, ea, BBB,0,25,102,1,86,3,1,746.51,347.47, ,,,,
109,11, F, ea, DDD,0,19,98,1,87,3,1,623.71,251.28, ,,,,
109,11, F, ea, BAB,1,26,100,1,88,3,1,963.03,338.63, ,,,,
109,11, F, ea, CCC,0,21,104,1,89,3,1,391.46,260.62, ,,,,
109,11, F, ea, AAA,0,23,100,1,90,3,1,949.48,252.06, ,,,,
109,11, F, ea, DDD,0,19,98,1,91,3,1,698.73,390.16, ,,,,
109,11, F, ea, BBB,0,25,102,1,92,3,1,541.54,216.01, ,,,,
109,11, F, ea, DCD,1,20,104,1,93,3,1,874.25,293.16, ,,,,
109,11, F, ea, ABA,1,24,102,1,94,3,1,753.37,281.86, ,,,,
109,11, F, ea, CDC,1,22,98,1,95,3,1,600.61,382.13, ,,,,
109,11, F, ea, AAA,0,23,100,1,96,3,1,560.37,344.63, ,,,,
109,11, F, ea, DCD,1,20,104,1,97,3,1,1323.76,823.27, ,,,,
110,15, F, mid, DDD,0,25,102,1,1,1,1,535.14,303.97, ,,,,
110,15, F, mid, BBB,0,19,98,1,2,1,1,539.34,271.48, ,,,,
110,15, F, mid, DCD,1,26,100,1,3,1,1,1011.68,14.45, ,,,,
110,15, F, mid, BAB,1,20,104,1,4,1,1,707.28,216.5, ,,,,
110,15, F, mid, CDC,1,24,102,1,5,1,1,584.74,313.55, ,,,,
110,15, F, mid, BBB,0,19,98,1,6,1,1,524.84,303.9, ,,,,
110,15, F, mid, CDC,1,24,102,1,7,1,1,508.03,256.34, ,,,,
110,15, F, mid, AAA,0,21,104,1,8,1,1,493.76,187.34, ,,,,
110,15, F, mid, DCD,1,26,100,1,9,1,1,1010.46,469.01, ,,,,
110,15, F, mid, BBB,0,19,98,1,10,1,1,657.92,344.27, ,,,,
110,15, F, mid, CCC,0,23,100,1,11,1,1,673.48,264.49, ,,,,
110,15, F, mid, BAB,1,20,104,1,12,1,1,710.39,379.07, ,,,,
110,15, F, mid, CDC,1,24,102,1,13,1,1,489.7,240.78, ,,,,
110,15, F, mid, BAB,1,20,104,1,14,1,1,747.73,250.98, ,,,,
110,15, F, mid, DDD,0,25,102,1,15,1,1,478.33,310.14, ,,,,
110,15, F, mid, ABA,1,22,98,1,16,1,1,775.96,196.6, ,,,,
110,15, F, mid, DCD,1,26,100,1,17,1,1,610.12,108.31, ,,,,
110,15, F, mid, ABA,1,22,98,1,18,1,1,661.93,351.02, ,,,,
110,15, F, mid, DDD,0,25,102,1,19,1,1,361.12,291.05, ,,,,
110,15, F, mid, AAA,0,21,104,1,20,1,1,539.79,266.76, ,,,,
110,15, F, mid, CDC,1,24,102,1,21,1,1,1372.3,305.92, ,,,,
110,15, F, mid, BAB,1,20,104,1,22,1,1,1039.91,437.07, ,,,,
110,15, F, mid, CDC,1,24,102,1,23,1,1,756.24,318.1, ,,,,
110,15, F, mid, AAA,0,21,104,1,24,1,1,426.39,65.75, ,,,,
110,15, F, mid, CDC,1,24,102,1,25,1,1,447.43,7.26, ,,,,
110,15, F, mid, BBB,0,19,98,1,26,1,1,476.94,67.18, ,,,,
110,15, F, mid, CCC,0,23,100,1,27,1,1,969.17,378.81, ,,,,
110,15, F, mid, BBB,0,19,98,1,28,1,1,529.59,296.04, ,,,,
110,15, F, mid, DDD,0,25,102,1,29,1,1,405.74,316.27, ,,,,
110,15, F, mid, AAA,0,21,104,1,30,1,1,401.25,47.43, ,,,,
110,15, F, mid, DCD,1,26,100,1,31,1,1,1310.1,506.55, ,,,,
110,15, F, mid, BAB,1,20,104,1,32,1,1,693,210.93, ,,,,
110,15, F, mid, DDD,0,25,102,1,33,1,1,287.85,0.4, ,,,,
110,15, F, mid, ABA,1,22,98,1,34,1,1,774.39,538.05, ,,,,
110,15, F, mid, CDC,1,24,102,1,35,1,1,473.79,474.02, ,,,,
110,15, F, mid, AAA,0,21,104,1,36,1,1,491.94,316.38, ,,,,
110,15, F, mid, DDD,0,25,102,1,37,1,1,376.43,249.39, ,,,,
110,15, F, mid, BAB,1,20,104,1,38,1,1,671.63,1702.14, ,,,,
110,15, F, mid, CCC,0,23,100,1,39,1,1,586.03,250.36, ,,,,
110,15, F, mid, BBB,0,19,98,1,40,1,1,711.51,284.86, ,,,,
110,15, F, mid, DDD,0,25,102,1,41,1,1,1001.1,441.98, ,,,,
110,15, F, mid, AAA,0,21,104,1,42,1,1,718.72,316.88, ,,,,
110,15, F, mid, DCD,1,26,100,1,43,1,1,536.41,242.75, ,,,,
110,15, F, mid, AAA,0,21,104,1,44,1,1,488.8,262.45, ,,,,
110,15, F, mid, CCC,0,23,100,1,45,1,1,553.87,278.83, ,,,,
110,15, F, mid, AAA,0,21,104,1,46,1,1,451.21,265.89, ,,,,
110,15, F, mid, CCC,0,23,100,1,47,1,1,479.14,252.73, ,,,,
110,15, F, mid, ABA,1,22,98,1,48,1,1,707.35,167.26, ,,,,
110,15, F, mid, CCC,0,23,100,1,49,1,1,463.68,255.65, ,,,,
110,15, F, mid, BBB,0,19,98,1,50,1,1,544.32,192.57, ,,,,
110,15, F, mid, CDC,1,24,102,1,51,1,1,633.32,279.79, ,,,,
110,15, F, mid, BBB,0,19,98,1,52,1,1,397.22,293.42, ,,,,
110,15, F, mid, DDD,0,25,102,1,53,1,1,522.44,421.85, ,,,,
110,15, F, mid, BBB,0,19,98,1,54,1,1,539.93,384.09, ,,,,
110,15, F, mid, CCC,0,23,100,1,55,1,1,703.37,349.39, ,,,,
110,15, F, mid, AAA,0,21,104,1,56,1,1,664.51,469.68, ,,,,
110,15, F, mid, DCD,1,26,100,1,57,1,1,793.73,444.89, ,,,,
110,15, F, mid, BAB,1,20,104,1,58,1,1,801.06,611.76, ,,,,
110,15, F, mid, CCC,0,23,100,1,59,1,1,475.98,536.99, ,,,,
110,15, F, mid, ABA,1,22,98,1,60,1,1,1404.35,796.72, ,,,,
110,15, F, mid, DCD,1,26,102,1,61,1,0,730.46,704.07, ,,,,
110,15, F, mid, BAB,1,20,104,1,62,1,1,658.83,346.5, ,,,,
110,15, F, mid, DCD,1,26,102,1,63,1,0,603.83,340.89, ,,,,
110,15, F, mid, BBB,0,19,98,1,64,1,1,599,343.93, ,,,,
110,15, F, mid, DCD,1,26,100,1,65,1,1,857.86,353.56, ,,,,
110,15, F, mid, ABA,1,22,98,1,66,1,1,1721.58,246.93, ,,,,
110,15, F, mid, CDC,1,24,102,1,67,1,1,641.23,693.08, ,,,,
110,15, F, mid, BBB,0,19,98,1,68,1,1,615.46,208.4, ,,,,
110,15, F, mid, CCC,0,23,100,1,69,1,1,463.36,383.66, ,,,,
110,15, F, mid, BBB,0,19,98,1,70,1,1,672.01,213.08, ,,,,
110,15, F, mid, DDD,0,25,102,1,71,1,1,537.84,247.54, ,,,,
110,15, F, mid, BAB,1,20,104,1,72,1,1,740.43,112.53, ,,,,
110,15, F, mid, DDD,0,25,102,1,73,1,1,543.17,303.06, ,,,,
110,15, F, mid, BAB,1,20,98,1,74,1,0,602.92,339.37, ,,,,
110,15, F, mid, DDD,0,25,102,1,75,1,1,558.33,264.44, ,,,,
110,15, F, mid, BAB,1,20,104,1,76,1,1,524.49,242.65, ,,,,
110,15, F, mid, DCD,1,26,100,1,77,1,1,893.57,277.22, ,,,,
110,15, F, mid, AAA,0,21,104,1,78,1,1,540.52,301.67, ,,,,
110,15, F, mid, DDD,0,25,102,1,79,1,1,687.8,262.69, ,,,,
110,15, F, mid, ABA,1,22,98,1,80,1,1,702.02,240.4, ,,,,
110,15, F, mid, CDC,1,24,102,1,81,1,1,678.67,189.3, ,,,,
110,15, F, mid, AAA,0,21,104,1,82,1,1,365.91,279.21, ,,,,
110,15, F, mid, DCD,1,26,100,1,83,1,1,1545.58,335.6, ,,,,
110,15, F, mid, ABA,1,22,98,1,84,1,1,647.48,48.83, ,,,,
110,15, F, mid, DCD,1,26,100,1,85,1,1,645.1,157.82, ,,,,
110,15, F, mid, BAB,1,20,104,1,86,1,1,599.35,168.71, ,,,,
110,15, F, mid, DDD,0,25,102,1,87,1,1,367.1,219.82, ,,,,
110,15, F, mid, ABA,1,22,98,1,88,1,1,1233.27,0.4, ,,,,
110,15, F, mid, CDC,1,24,102,1,89,1,1,634.2,0.4, ,,,,
110,15, F, mid, ABA,1,22,104,1,90,1,0,488.4,477.58, ,,,,
110,15, F, mid, CCC,0,23,100,1,91,1,1,440.95,226.06, ,,,,
110,15, F, mid, ABA,1,22,98,1,92,1,1,913.18,13.84, ,,,,
110,15, F, mid, CDC,1,24,102,1,93,1,1,458.63,284.03, ,,,,
110,15, F, mid, AAA,0,21,104,1,94,1,1,458.49,286.46, ,,,,
110,15, F, mid, CCC,0,23,100,1,95,1,1,514.19,255.5, ,,,,
110,15, F, mid, ABA,1,22,98,1,96,1,1,737.2,265.36, ,,,,
110,15, F, mid, CCC,0,23,100,1,97,1,1,492.64,315.83, ,,,,
110,15, F, mid, DCD,1,26,100,1,1,2,1,1476.46,281.84, ,,,,
110,15, F, mid, BBB,0,19,98,1,2,2,1,604.32,471.91, ,,,,
110,15, F, mid, DCD,1,26,100,1,3,2,1,699.9,280.55, ,,,,
110,15, F, mid, ABA,1,22,98,1,4,2,1,995.7,223.18, ,,,,
110,15, F, mid, CDC,1,24,102,1,5,2,1,592.28,446.77, ,,,,
110,15, F, mid, BBB,0,19,98,1,6,2,1,493.06,3122.65, ,,,,
110,15, F, mid, DDD,0,25,102,1,7,2,1,668.98,420.04, ,,,,
110,15, F, mid, ABA,1,22,98,1,8,2,1,673.87,81.05, ,,,,
110,15, F, mid, CCC,0,23,100,1,9,2,1,405.8,150.44, ,,,,
110,15, F, mid, AAA,0,21,104,1,10,2,1,407.29,112.45, ,,,,
110,15, F, mid, CCC,0,23,100,1,11,2,1,470.15,217.37, ,,,,
110,15, F, mid, ABA,1,22,98,1,12,2,1,675.7,534.58, ,,,,
110,15, F, mid, DDD,0,25,102,1,13,2,1,611.44,329.42, ,,,,
110,15, F, mid, BBB,0,19,98,1,14,2,1,564.16,119.3, ,,,,
110,15, F, mid, DCD,1,26,100,1,15,2,1,1082.64,351.08, ,,,,
110,15, F, mid, ABA,1,22,98,1,16,2,1,646.95,344.13, ,,,,
110,15, F, mid, CDC,1,24,102,1,17,2,1,444.74,393.86, ,,,,
110,15, F, mid, BBB,0,19,98,1,18,2,1,441.09,249.55, ,,,,
110,15, F, mid, CDC,1,24,102,1,19,2,1,536.34,283.09, ,,,,
110,15, F, mid, BAB,1,20,104,1,20,2,1,661.67,333.69, ,,,,
110,15, F, mid, DCD,1,26,100,1,21,2,1,575.48,258.05, ,,,,
110,15, F, mid, ABA,1,22,98,1,22,2,1,615,271.89, ,,,,
110,15, F, mid, CDC,1,24,102,1,23,2,1,491.93,346.19, ,,,,
110,15, F, mid, BBB,0,19,98,1,24,2,1,470.1,433.87, ,,,,
110,15, F, mid, CDC,1,24,102,1,25,2,1,599.83,336.96, ,,,,
110,15, F, mid, BBB,0,19,98,1,26,2,1,401.46,380.01, ,,,,
110,15, F, mid, CDC,1,24,102,1,27,2,1,502.58,161.09, ,,,,
110,15, F, mid, AAA,0,21,104,1,28,2,1,539.52,334.04, ,,,,
110,15, F, mid, CCC,0,23,100,1,29,2,1,663.06,359.09, ,,,,
110,15, F, mid, BAB,1,20,104,1,30,2,1,601.27,273.55, ,,,,
110,15, F, mid, DCD,1,26,100,1,31,2,1,653.39,125.25, ,,,,
110,15, F, mid, BAB,1,20,104,1,32,2,1,551.88,531.6, ,,,,
110,15, F, mid, CCC,0,23,100,1,33,2,1,1036.9,524.75, ,,,,
110,15, F, mid, AAA,0,21,104,1,34,2,1,450.5,214.51, ,,,,
110,15, F, mid, CCC,0,23,100,1,35,2,1,517.08,313.57, ,,,,
110,15, F, mid, AAA,0,21,104,1,36,2,1,460.02,323.88, ,,,,
110,15, F, mid, DDD,0,25,102,1,37,2,1,1094.77,403.69, ,,,,
110,15, F, mid, ABA,1,22,98,1,38,2,1,699.71,0.4, ,,,,
110,15, F, mid, DDD,0,25,102,1,39,2,1,474,221.77, ,,,,
110,15, F, mid, AAA,0,21,104,1,40,2,1,468.86,202.79, ,,,,
110,15, F, mid, CDC,1,24,102,1,41,2,1,584.64,131.93, ,,,,
110,15, F, mid, ABA,1,22,98,1,42,2,1,1270.47,324.36, ,,,,
110,15, F, mid, DCD,1,26,100,1,43,2,1,644.83,287.45, ,,,,
110,15, F, mid, BAB,1,20,104,1,44,2,1,595.31,396.44, ,,,,
110,15, F, mid, CDC,1,24,102,1,45,2,1,542.23,448.43, ,,,,
110,15, F, mid, BBB,0,19,98,1,46,2,1,620.31,445.62, ,,,,
110,15, F, mid, CDC,1,24,102,1,47,2,1,539.37,342.98, ,,,,
110,15, F, mid, BBB,0,19,98,1,48,2,1,638.57,289.45, ,,,,
110,15, F, mid, DCD,1,26,0,1,49,2,0,0,1678.68, ,,,,
110,15, F, mid, AAA,0,21,104,1,50,2,1,748.78,446.39, ,,,,
110,15, F, mid, CCC,0,23,100,1,51,2,1,652.49,2994.39, ,,,,
110,15, F, mid, ABA,1,22,98,1,52,2,1,722.02,687.34, ,,,,
110,15, F, mid, DDD,0,25,102,1,53,2,1,706.68,584.44, ,,,,
110,15, F, mid, BBB,0,19,100,1,54,2,0,415.43,720.75, ,,,,
110,15, F, mid, CDC,1,24,98,1,55,2,0,1779.79,286.1, ,,,,
110,15, F, mid, BAB,1,20,104,1,56,2,1,682.18,319.88, ,,,,
110,15, F, mid, DDD,0,25,102,1,57,2,1,338.39,238.24, ,,,,
110,15, F, mid, BAB,1,20,104,1,58,2,1,621.91,237.61, ,,,,
110,15, F, mid, CCC,0,23,100,1,59,2,1,490.72,296.99, ,,,,
110,15, F, mid, AAA,0,21,104,1,60,2,1,476.02,162.03, ,,,,
110,15, F, mid, DCD,1,26,100,1,61,2,1,638.71,283.52, ,,,,
110,15, F, mid, BAB,1,20,104,1,62,2,1,571.29,185.96, ,,,,
110,15, F, mid, DDD,0,25,102,1,63,2,1,405.1,203.39, ,,,,
110,15, F, mid, BAB,1,20,104,1,64,2,1,498.91,198.68, ,,,,
110,15, F, mid, CDC,1,24,102,1,65,2,1,542.97,161.86, ,,,,
110,15, F, mid, AAA,0,21,104,1,66,2,1,506.72,0.39, ,,,,
110,15, F, mid, DDD,0,25,102,1,67,2,1,471.37,445.85, ,,,,
110,15, F, mid, AAA,0,21,104,1,68,2,1,429.61,276.55, ,,,,
110,15, F, mid, DDD,0,25,102,1,69,2,1,463.86,183.16, ,,,,
110,15, F, mid, ABA,1,22,98,1,70,2,1,643.17,1046.95, ,,,,
110,15, F, mid, CCC,0,23,100,1,71,2,1,820.16,244.75, ,,,,
110,15, F, mid, BAB,1,20,104,1,72,2,1,547.33,231.52, ,,,,
110,15, F, mid, CCC,0,23,100,1,73,2,1,557.2,351.62, ,,,,
110,15, F, mid, BAB,1,20,104,1,74,2,1,531.1,285.2, ,,,,
110,15, F, mid, DCD,1,26,100,1,75,2,1,658.34,240.34, ,,,,
110,15, F, mid, BAB,1,20,104,1,76,2,1,574.83,248.74, ,,,,
110,15, F, mid, DDD,0,25,102,1,77,2,1,415.94,279.09, ,,,,
110,15, F, mid, BBB,0,19,98,1,78,2,1,553,222.16, ,,,,
110,15, F, mid, DDD,0,25,102,1,79,2,1,389.82,295.17, ,,,,
110,15, F, mid, BBB,0,19,98,1,80,2,1,513.72,239.59, ,,,,
110,15, F, mid, DCD,1,26,100,1,81,2,1,665.16,196.56, ,,,,
110,15, F, mid, AAA,0,21,104,1,82,2,1,460.05,362.28, ,,,,
110,15, F, mid, DCD,1,26,100,1,83,2,1,610.27,395.98, ,,,,
110,15, F, mid, BAB,1,20,104,1,84,2,1,522.23,351.72, ,,,,
110,15, F, mid, CCC,0,23,100,1,85,2,1,480.58,551.43, ,,,,
110,15, F, mid, AAA,0,21,104,1,86,2,1,472.92,423.17, ,,,,
110,15, F, mid, CCC,0,23,100,1,87,2,1,478.28,388.3, ,,,,
110,15, F, mid, AAA,0,21,104,1,88,2,1,379.77,302.62, ,,,,
110,15, F, mid, DCD,1,26,102,1,89,2,0,327.36,606.29, ,,,,
110,15, F, mid, ABA,1,22,98,1,90,2,1,654.5,365.22, ,,,,
110,15, F, mid, DDD,0,25,102,1,91,2,1,523.76,265.84, ,,,,
110,15, F, mid, BBB,0,19,98,1,92,2,1,478.75,300.8, ,,,,
110,15, F, mid, CCC,0,23,100,1,93,2,1,696.72,141.88, ,,,,
110,15, F, mid, ABA,1,22,98,1,94,2,1,1872.96,262.36, ,,,,
110,15, F, mid, CDC,1,24,102,1,95,2,1,457.7,250.15, ,,,,
110,15, F, mid, ABA,1,22,98,1,96,2,1,746.17,131.84, ,,,,
110,15, F, mid, DCD,1,26,100,1,97,2,1,715.76,105.64, ,,,,
110,15, F, mid, DCD,1,26,100,1,1,3,1,1059.44,377.89, ,,,,
110,15, F, mid, ABA,1,22,98,1,2,3,1,649.37,1033.57, ,,,,
110,15, F, mid, CCC,0,23,100,1,3,3,1,591.37,49.42, ,,,,
110,15, F, mid, BBB,0,19,98,1,4,3,1,432.38,39.88, ,,,,
110,15, F, mid, DDD,0,25,102,1,5,3,1,324.11,152.74, ,,,,
110,15, F, mid, BBB,0,19,98,1,6,3,1,302.87,143.09, ,,,,
110,15, F, mid, DDD,0,25,102,1,7,3,1,424.2,1.78, ,,,,
110,15, F, mid, BAB,1,20,104,1,8,3,1,608.2,273.78, ,,,,
110,15, F, mid, DCD,1,26,100,1,9,3,1,525.14,875.48, ,,,,
110,15, F, mid, BBB,0,19,98,1,10,3,1,518.44,315.85, ,,,,
110,15, F, mid, DCD,1,26,102,1,11,3,0,573.3,401.63, ,,,,
110,15, F, mid, BAB,1,20,104,1,12,3,1,679.84,127.26, ,,,,
110,15, F, mid, DDD,0,25,102,1,13,3,1,400.09,290.44, ,,,,
110,15, F, mid, AAA,0,21,104,1,14,3,1,447.6,318.2, ,,,,
110,15, F, mid, CCC,0,23,100,1,15,3,1,401.61,274.51, ,,,,
110,15, F, mid, BAB,1,20,104,1,16,3,1,590.52,248.28, ,,,,
110,15, F, mid, CDC,1,24,102,1,17,3,1,653.42,276.71, ,,,,
110,15, F, mid, BAB,1,20,104,1,18,3,1,363.81,0.41, ,,,,
110,15, F, mid, DCD,1,26,100,1,19,3,1,519.11,192.01, ,,,,
110,15, F, mid, ABA,1,22,98,1,20,3,1,590.91,257.54, ,,,,
110,15, F, mid, CCC,0,23,100,1,21,3,1,662.92,478.47, ,,,,
110,15, F, mid, ABA,1,22,98,1,22,3,1,592.89,221.01, ,,,,
110,15, F, mid, CCC,0,23,100,1,23,3,1,390.2,333.09, ,,,,
110,15, F, mid, ABA,1,22,98,1,24,3,1,830.76,1055.22, ,,,,
110,15, F, mid, DCD,1,26,100,1,25,3,1,566.17,583.03, ,,,,
110,15, F, mid, AAA,0,21,104,1,26,3,1,502.52,140.87, ,,,,
110,15, F, mid, DCD,1,26,100,1,27,3,1,535.8,0.41, ,,,,
110,15, F, mid, AAA,0,21,104,1,28,3,1,394.42,178.75, ,,,,
110,15, F, mid, CCC,0,23,100,1,29,3,1,378.38,109.15, ,,,,
110,15, F, mid, AAA,0,21,104,1,30,3,1,400.98,314.86, ,,,,
110,15, F, mid, CDC,1,24,102,1,31,3,1,412.84,269.58, ,,,,
110,15, F, mid, AAA,0,21,104,1,32,3,1,381.11,284.77, ,,,,
110,15, F, mid, DCD,1,26,100,1,33,3,1,396.1,225.86, ,,,,
110,15, F, mid, BBB,0,19,98,1,34,3,1,624.94,281.7, ,,,,
110,15, F, mid, DCD,1,26,100,1,35,3,1,552.52,104.01, ,,,,
110,15, F, mid, ABA,1,22,98,1,36,3,1,741.37,79.85, ,,,,
110,15, F, mid, DDD,0,25,102,1,37,3,1,461.11,234.03, ,,,,
110,15, F, mid, ABA,1,22,98,1,38,3,1,766.38,226.48, ,,,,
110,15, F, mid, CCC,0,23,100,1,39,3,1,343.34,172.79, ,,,,
110,15, F, mid, BAB,1,20,104,1,40,3,1,533.99,241.17, ,,,,
110,15, F, mid, CCC,0,23,100,1,41,3,1,747.04,186.97, ,,,,
110,15, F, mid, BAB,1,20,104,1,42,3,1,583.62,189.64, ,,,,
110,15, F, mid, CDC,1,24,102,1,43,3,1,471.21,219.78, ,,,,
110,15, F, mid, BBB,0,19,98,1,44,3,1,549.91,36.7, ,,,,
110,15, F, mid, DDD,0,25,102,1,45,3,1,505.18,223.73, ,,,,
110,15, F, mid, BBB,0,19,98,1,46,3,1,525.78,210.62, ,,,,
110,15, F, mid, CCC,0,23,100,1,47,3,1,393.04,235.72, ,,,,
110,15, F, mid, AAA,0,21,104,1,48,3,1,351.68,237.51, ,,,,
110,15, F, mid, DCD,1,26,100,1,49,3,1,645.15,179.13, ,,,,
110,15, F, mid, BAB,1,20,104,1,50,3,1,561.68,222.08, ,,,,
110,15, F, mid, CDC,1,24,102,1,51,3,1,399.59,317.89, ,,,,
110,15, F, mid, AAA,0,21,104,1,52,3,1,436.93,72.21, ,,,,
110,15, F, mid, CDC,1,24,102,1,53,3,1,564.82,63.32, ,,,,
110,15, F, mid, AAA,0,21,104,1,54,3,1,364.77,246.22, ,,,,
110,15, F, mid, DDD,0,25,102,1,55,3,1,339.09,87.37, ,,,,
110,15, F, mid, ABA,1,22,98,1,56,3,1,602.34,276.35, ,,,,
